idx,t,px,py,pz,vx,vy,vz,ax,ay,az,yaw,mode,ledr,ledg,ledb
0,0.019064382999658847,-0.28349238634109497,0.5033831596374512,-14.921157836914062,0.10913119465112686,-0.11532913148403168,-0.16067834198474884,0.0,0.0,0.0,-0.010362930924716462,70,255,255,255
1,0.05053630599968528,-0.28264498710632324,0.5149993896484375,-14.92462158203125,0.11628469079732895,-0.15513819456100464,-0.15184010565280914,0.0,0.0,0.0,-0.01004565169123905,70,255,255,255
2,0.08165284199958478,-0.28116968274116516,0.5242233872413635,-14.9288330078125,0.12261824309825897,-0.1826450228691101,-0.19239622354507446,0.0,0.0,0.0,-0.010250058667578337,70,255,255,255
3,0.11239840700000059,-0.2792221009731293,0.5310423374176025,-14.93475341796875,0.12288053333759308,-0.2173653244972229,-0.2534762918949127,0.0,0.0,0.0,-0.010448748169952362,70,255,255,255
4,0.14918081899986646,-0.2780350148677826,0.5440120697021484,-14.944564819335938,0.11779310554265976,-0.22834047675132751,-0.33931928873062134,0.0,0.0,0.0,-0.010892933271155857,70,255,255,255
5,0.18156491399986407,-0.27743813395500183,0.552699863910675,-14.95452880859375,0.09128208458423615,-0.2852185368537903,-0.3853949308395386,0.0,0.0,0.0,-0.013739940901721131,70,255,255,255
6,0.21427115699998467,-0.2775379419326782,0.5577348470687866,-14.965728759765625,0.05278586223721504,-0.34509533643722534,-0.42828625440597534,0.0,0.0,0.0,-0.01966256149470516,70,255,255,255
7,0.25173904599978414,-0.2792603075504303,0.5611563324928284,-14.978515625,-0.007898721843957901,-0.4305895268917084,-0.4610821306705475,0.0,0.0,0.0,-0.028912423201525705,70,255,255,255
8,0.2849468509998587,-0.28362837433815,0.5654569268226624,-14.9925537109375,-0.07580354064702988,-0.5317474603652954,-0.4951046109199524,0.0,0.0,0.0,-0.03397646770679801,70,255,255,255
9,0.31841957899996487,-0.29007381200790405,0.5642653107643127,-15.00738525390625,-0.1562156081199646,-0.6593993902206421,-0.5023746490478516,0.0,0.0,0.0,-0.044865954472996274,70,255,255,255
10,0.35444121199998335,-0.3015061318874359,0.5546332597732544,-15.027236938476562,-0.2682192623615265,-0.8281568288803101,-0.5476394295692444,0.0,0.0,0.0,-0.04780002146377462,70,255,255,255
11,0.38663585599988437,-0.3152052164077759,0.5420359373092651,-15.043304443359375,-0.33201897144317627,-0.9431768655776978,-0.5117061138153076,0.0,0.0,0.0,-0.0433315450826227,70,255,255,255
12,0.41866739699980826,-0.33228614926338196,0.5261383056640625,-15.058319091796875,-0.3881290853023529,-1.0477123260498047,-0.4745550751686096,0.0,0.0,0.0,-0.03333069483494043,70,255,255,255
13,0.4553690119996645,-0.3500870168209076,0.5057969689369202,-15.072128295898438,-0.4183078110218048,-1.1233618259429932,-0.4236185848712921,0.0,0.0,0.0,-0.028090563366748846,70,255,255,255
14,0.4876897609997286,-0.3684845268726349,0.4809192717075348,-15.083831787109375,-0.4670475125312805,-1.2190923690795898,-0.36205554008483887,0.0,0.0,0.0,-0.01585851571750089,70,255,255,255
15,0.520323671999904,-0.389549195766449,0.4563228487968445,-15.093734741210938,-0.508836030960083,-1.31759774684906,-0.3292195498943329,0.0,0.0,0.0,-0.003671300980803059,70,255,255,255
16,0.5576667229997838,-0.4172718822956085,0.41983821988105774,-15.103927612304688,-0.5502862334251404,-1.472873568534851,-0.2582724690437317,0.0,0.0,0.0,0.002592289536089781,70,255,255,255
17,0.5921739999998863,-0.4398675858974457,0.3849763870239258,-15.111541748046875,-0.5752624869346619,-1.573499321937561,-0.27298504114151,0.0,0.0,0.0,0.02099803691283902,70,255,255,255
18,0.6351479769996331,-0.4625929594039917,0.34533241391181946,-15.1192626953125,-0.587977409362793,-1.6934618949890137,-0.24640342593193054,0.0,0.0,0.0,0.054003114531436025,70,255,255,255
19,0.6650182019998283,-0.48874977231025696,0.307722806930542,-15.125534057617188,-0.5824719071388245,-1.8037357330322266,-0.19524678587913513,0.0,0.0,0.0,0.09607934534473625,70,255,255,255
20,0.6922751559995959,-0.5138430595397949,0.26540157198905945,-15.130508422851562,-0.5585875511169434,-1.8693029880523682,-0.15624883770942688,0.0,0.0,0.0,0.11890877780197932,70,255,255,255
21,0.7251502279996203,-0.5369654297828674,0.21941593289375305,-15.134445190429688,-0.49775585532188416,-1.9487460851669312,-0.1235315129160881,0.0,0.0,0.0,0.17062636748590934,70,255,255,255
22,0.7632584189996123,-0.5623525381088257,0.1572401225566864,-15.138076782226562,-0.40941858291625977,-2.04780650138855,-0.10593707859516144,0.0,0.0,0.0,0.22511907089424282,70,255,255,255
23,0.7961559569998826,-0.5795318484306335,0.10714312642812729,-15.138656616210938,-0.3163321018218994,-2.094181776046753,-0.08519726991653442,0.0,0.0,0.0,0.2521549330037524,70,255,255,255
24,0.8315729199998714,-0.5929647088050842,0.054363470524549484,-15.13916015625,-0.20389121770858765,-2.1263675689697266,-0.06452610343694687,0.0,0.0,0.0,0.3080556996146812,70,255,255,255
25,0.864695983999809,-0.602239191532135,-0.0010573359904810786,-15.139007568359375,-0.0627206563949585,-2.182779312133789,-0.04944545403122902,0.0,0.0,0.0,0.3355305006061063,70,255,255,255
26,0.8977225649996399,-0.6057488322257996,-0.058049991726875305,-15.138336181640625,0.11218121647834778,-2.271472692489624,-0.04759255796670914,0.0,0.0,0.0,0.3905604967643633,70,255,255,255
27,0.9316069749997951,-0.6026778221130371,-0.11718647927045822,-15.13739013671875,0.3146919012069702,-2.3503236770629883,-0.05263105034828186,0.0,0.0,0.0,0.4493297708301732,70,255,255,255
28,0.9670962879999934,-0.5885469913482666,-0.19589385390281677,-15.136947631835938,0.5753567814826965,-2.407895088195801,-0.06344225257635117,0.0,0.0,0.0,0.4784337939079679,70,255,255,255
29,1.0002468489997227,-0.5691705346107483,-0.26176196336746216,-15.137252807617188,0.7888238430023193,-2.4281811714172363,-0.06741715967655182,0.0,0.0,0.0,0.5389681778547688,70,255,255,255
30,1.0330903549997856,-0.5461185574531555,-0.32614731788635254,-15.13873291015625,1.000339388847351,-2.4548161029815674,-0.034622061997652054,0.0,0.0,0.0,0.5995023287749742,70,255,255,255
31,1.0693861569998262,-0.5166642069816589,-0.39176464080810547,-15.139785766601562,1.2026840448379517,-2.473578691482544,0.013100149109959602,0.0,0.0,0.0,0.6291465740798915,70,255,255,255
32,1.1018605679996654,-0.4801699221134186,-0.458948016166687,-15.1400146484375,1.4084116220474243,-2.4652154445648193,0.014735087752342224,0.0,0.0,0.0,0.6946426268745918,70,255,255,255
33,1.134769980999863,-0.436523973941803,-0.5271850824356079,-15.139724731445312,1.6065242290496826,-2.4352219104766846,0.024254141375422478,0.0,0.0,0.0,0.7626170839587469,70,255,255,255
34,1.17298215899973,-0.37271150946617126,-0.6055697202682495,-15.140731811523438,1.8674074411392212,-2.3808884620666504,0.0012594189029186964,0.0,0.0,0.0,0.8349028659526042,70,255,255,255
35,1.2037572939998427,-0.31304821372032166,-0.6678362488746643,-15.141693115234375,2.0940730571746826,-2.3550961017608643,0.0038385973311960697,0.0,0.0,0.0,0.8716682708543388,70,255,255,255
36,1.2365362589998767,-0.24564848840236664,-0.7308424711227417,-15.1422119140625,2.3161022663116455,-2.31982159614563,0.025003613904118538,0.0,0.0,0.0,0.9427534998287884,70,255,255,255
37,1.274935199999618,-0.17148658633232117,-0.7913547158241272,-15.142105102539062,2.513014078140259,-2.2744388580322266,0.06048279255628586,0.0,0.0,0.0,1.0151023321614532,70,255,255,255
38,1.3067436499995893,-0.09104036539793015,-0.843828022480011,-15.142913818359375,2.7317006587982178,-2.2016918659210205,0.05587606504559517,0.0,0.0,0.0,1.050492480676271,70,255,255,255
39,1.3389118259997304,-0.003517796052619815,-0.8959769010543823,-15.14361572265625,2.9376163482666016,-2.1288795471191406,0.04496356472373009,0.0,0.0,0.0,1.120900401206486,70,255,255,255
40,1.378752806999728,0.11599280685186386,-0.9603089094161987,-15.144821166992188,3.2109732627868652,-2.0410385131835938,0.02587597630918026,0.0,0.0,0.0,1.1910944033221407,70,255,255,255
41,1.4107057049996001,0.21871089935302734,-1.0063613653182983,-15.1470947265625,3.4123384952545166,-1.9448583126068115,-0.03171887248754501,0.0,0.0,0.0,1.2251627584089249,70,255,255,255
42,1.4438852169996608,0.32723623514175415,-1.0473960638046265,-15.150421142578125,3.608454704284668,-1.8629229068756104,-0.05852750316262245,0.0,0.0,0.0,1.2907690660727542,70,255,255,255
43,1.4806032689998574,0.44226282835006714,-1.087572693824768,-15.154617309570312,3.786362886428833,-1.7883323431015015,-0.0754917711019516,0.0,0.0,0.0,1.3205039254337616,70,255,255,255
44,1.51177281199989,0.563758134841919,-1.1270710229873657,-15.158981323242188,3.969698429107666,-1.7062897682189941,-0.0917525663971901,0.0,0.0,0.0,1.375725502742936,70,255,255,255
45,1.5447471620000215,0.6924841403961182,-1.1586593389511108,-15.164505004882812,4.144712448120117,-1.6292132139205933,-0.06899382174015045,0.0,0.0,0.0,1.4291338668239302,70,255,255,255
46,1.5829207269998733,0.8625579476356506,-1.1946367025375366,-15.170730590820312,4.378260135650635,-1.5412685871124268,-0.04262055829167366,0.0,0.0,0.0,1.4797569638788648,70,255,255,255
47,1.6139090589999796,1.005417823791504,-1.223096489906311,-15.175369262695312,4.54254150390625,-1.47913658618927,-0.05532637983560562,0.0,0.0,0.0,1.5038592375343545,70,255,255,255
48,1.6458129099996768,1.1530994176864624,-1.2512620687484741,-15.179672241210938,4.6646342277526855,-1.423162579536438,-0.03999178856611252,0.0,0.0,0.0,1.5481019332496773,70,255,255,255
49,1.682953876999818,1.3041841983795166,-1.2721226215362549,-15.183975219726562,4.802206993103027,-1.364857792854309,-0.020746324211359024,0.0,0.0,0.0,1.5895063650332484,70,255,255,255
50,1.717041703999712,1.459584355354309,-1.2930530309677124,-15.187576293945312,4.926109790802002,-1.3124192953109741,-0.004046239890158176,0.0,0.0,0.0,1.6093178866984568,70,255,255,255
51,1.7487510539999676,1.6189125776290894,-1.3139972686767578,-15.190505981445312,5.031905174255371,-1.2700062990188599,-0.014116744510829449,0.0,0.0,0.0,1.6458982684834582,70,255,255,255
52,1.7852124949999961,1.822744607925415,-1.3385989665985107,-15.193328857421875,5.188656806945801,-1.222087025642395,0.015540002845227718,0.0,0.0,0.0,1.663251559304469,70,255,255,255
53,1.8178533489999609,1.987746000289917,-1.3523248434066772,-15.195297241210938,5.285750865936279,-1.199047327041626,-0.013369511812925339,0.0,0.0,0.0,1.6960017828097185,70,255,255,255
54,1.8507660049999686,2.1567747592926025,-1.3670872449874878,-15.197418212890625,5.415241718292236,-1.1677485704421997,-0.00921752117574215,0.0,0.0,0.0,1.721328178460263,70,255,255,255
55,1.8879436629999873,2.3302066326141357,-1.3826191425323486,-15.198959350585938,5.527266025543213,-1.15235435962677,0.021749045699834824,0.0,0.0,0.0,1.7488614025481017,70,255,255,255
56,1.920238154999879,2.5063703060150146,-1.3965578079223633,-15.199432373046875,5.636237621307373,-1.1302834749221802,0.018782339990139008,0.0,0.0,0.0,1.7642198525545887,70,255,255,255
57,1.952924418999828,2.6860108375549316,-1.4084750413894653,-15.1990966796875,5.778682231903076,-1.0974979400634766,0.04122939705848694,0.0,0.0,0.0,1.7949845563091296,70,255,255,255
58,1.9902480389996526,2.917236566543579,-1.4240583181381226,-15.197479248046875,5.917598247528076,-1.0760107040405273,0.05371702089905739,0.0,0.0,0.0,1.809687602371348,70,255,255,255
59,2.02345820499977,3.1061673164367676,-1.4377785921096802,-15.196121215820312,6.0084733963012695,-1.0614979267120361,0.06392571330070496,0.0,0.0,0.0,1.838001931606907,70,255,255,255
60,2.055878354000015,3.2985920906066895,-1.4484758377075195,-15.191665649414062,6.064306259155273,-1.0538690090179443,0.06945832818746567,0.0,0.0,0.0,1.8595346542846336,70,255,255,255
61,2.094526511999902,3.4937326908111572,-1.4592745304107666,-15.186767578125,6.150992393493652,-1.0401456356048584,0.0732073113322258,0.0,0.0,0.0,1.8705763864802112,70,255,255,255
62,2.128638624999894,3.6915855407714844,-1.4712408781051636,-15.181976318359375,6.217806339263916,-1.0482367277145386,0.05296298861503601,0.0,0.0,0.0,1.873427300427141,70,255,255,255
63,2.158508368999719,3.891707181930542,-1.485042691230774,-15.177978515625,6.282158851623535,-1.053059458732605,0.062181342393159866,0.0,0.0,0.0,1.876374487647477,70,255,255,255
64,2.1977751999997963,4.1434502601623535,-1.4975680112838745,-15.171875,6.38195276260376,-1.0501902103424072,0.0724840983748436,0.0,0.0,0.0,1.8738579335754066,70,255,255,255
65,2.233139418999599,4.3479108810424805,-1.5080865621566772,-15.166641235351562,6.46429443359375,-1.061955451965332,0.06877943128347397,0.0,0.0,0.0,1.871711958369021,70,255,255,255
66,2.264280960999713,4.554944038391113,-1.521036148071289,-15.162216186523438,6.542416572570801,-1.0707693099975586,0.053347568958997726,0.0,0.0,0.0,1.863654564490986,70,255,255,255
67,2.298923600999842,4.764764785766602,-1.534449815750122,-15.1566162109375,6.612175941467285,-1.0927150249481201,0.07598567754030228,0.0,0.0,0.0,1.8592353149781087,70,255,255,255
68,2.3342489339997883,4.97849178314209,-1.545783519744873,-15.148712158203125,6.706325054168701,-1.1089298725128174,0.06272601336240768,0.0,0.0,0.0,1.8474584171636148,70,255,255,255
69,2.3661712889997943,5.195382595062256,-1.559178113937378,-15.141311645507812,6.814054489135742,-1.099758267402649,0.0805271789431572,0.0,0.0,0.0,1.8350233190857077,70,255,255,255
70,2.401603270999658,5.471931457519531,-1.5780847072601318,-15.131790161132812,6.945141315460205,-1.1032192707061768,0.0935889258980751,0.0,0.0,0.0,1.81987445985701,70,255,255,255
71,2.4354308559995843,5.697237968444824,-1.5944463014602661,-15.124862670898438,7.0172905921936035,-1.133786916732788,0.060154665261507034,0.0,0.0,0.0,1.8109848281383256,70,255,255,255
72,2.467401503000019,5.925436019897461,-1.6119728088378906,-15.118560791015625,7.065705299377441,-1.1628317832946777,0.033254895359277725,0.0,0.0,0.0,1.7915605300956146,70,255,255,255
73,2.503240431999984,6.154904842376709,-1.6320189237594604,-15.11334228515625,7.110869407653809,-1.1847811937332153,0.028080575168132782,0.0,0.0,0.0,1.7810964375404752,70,255,255,255
74,2.536087256999963,6.386188983917236,-1.6538481712341309,-15.107879638671875,7.180976390838623,-1.1793822050094604,0.05717328190803528,0.0,0.0,0.0,1.7578819286343634,70,255,255,255
75,2.5691713119999804,6.6185431480407715,-1.6741682291030884,-15.101943969726562,7.2240095138549805,-1.1902754306793213,0.07502229511737823,0.0,0.0,0.0,1.733294293870207,70,255,255,255
76,2.605756748999738,6.911553859710693,-1.7006763219833374,-15.09503173828125,7.330010414123535,-1.186242699623108,0.06434496492147446,0.0,0.0,0.0,1.7207388209110284,70,255,255,255
77,2.638049746999968,7.148542881011963,-1.723695993423462,-15.0888671875,7.379419803619385,-1.1897053718566895,0.1046842560172081,0.0,0.0,0.0,1.6935121266646578,70,255,255,255
78,2.670231135999984,7.386960029602051,-1.7485058307647705,-15.08245849609375,7.419054985046387,-1.2028553485870361,0.113275907933712,0.0,0.0,0.0,1.6720447845916926,70,255,255,255
79,2.707116620999841,7.626565456390381,-1.7728581428527832,-15.072647094726562,7.470585823059082,-1.1986995935440063,0.1308189183473587,0.0,0.0,0.0,1.644983738965125,70,255,255,255
80,2.740209733000029,7.868084907531738,-1.798722743988037,-15.063140869140625,7.54974889755249,-1.1945865154266357,0.14783132076263428,0.0,0.0,0.0,1.6359144770309146,70,255,255,255
81,2.773387059000015,8.111888885498047,-1.8254927396774292,-15.053115844726562,7.583983898162842,-1.1861741542816162,0.1683875322341919,0.0,0.0,0.0,1.6136935935275114,70,255,255,255
82,2.8112066949997825,8.419584274291992,-1.8592370748519897,-15.040679931640625,7.686601638793945,-1.1729309558868408,0.16146691143512726,0.0,0.0,0.0,1.6026887461130315,70,255,255,255
83,2.8438100759999543,8.670943260192871,-1.8837312459945679,-15.030120849609375,7.779705047607422,-1.1693897247314453,0.17641274631023407,0.0,0.0,0.0,1.5804833089439507,70,255,255,255
84,2.8795507049999287,8.924139022827148,-1.909533977508545,-15.020660400390625,7.8219757080078125,-1.1580650806427002,0.14505168795585632,0.0,0.0,0.0,1.5600323623010144,70,255,255,255
85,2.91205016899994,9.178434371948242,-1.9360982179641724,-15.012054443359375,7.8513407707214355,-1.136187195777893,0.13496342301368713,0.0,0.0,0.0,1.5392158967984644,70,255,255,255
86,2.944842679999965,9.434591293334961,-1.9617177248001099,-15.0054931640625,7.9223151206970215,-1.1177284717559814,0.11950519680976868,0.0,0.0,0.0,1.5293586054976998,70,255,255,255
87,2.9825135999999475,9.693459510803223,-1.986628532409668,-15.0010986328125,8.008078575134277,-1.0978662967681885,0.09842614084482193,0.0,0.0,0.0,1.5115203530421855,70,255,255,255
88,3.0151276509996023,10.019415855407715,-2.018310308456421,-14.9959716796875,8.036086082458496,-1.063469409942627,0.10735975205898285,0.0,0.0,0.0,1.502369731536673,70,255,255,255
89,3.0477880729999924,10.280192375183105,-2.044360637664795,-14.992019653320312,8.039504051208496,-1.0473238229751587,0.0716429129242897,0.0,0.0,0.0,1.4856585288544804,70,255,255,255
90,3.0832445539999753,10.540209770202637,-2.067716121673584,-14.987030029296875,8.078812599182129,-1.0171747207641602,0.05545821040868759,0.0,0.0,0.0,1.4709737254457291,70,255,255,255
91,3.1180314029998044,10.800939559936523,-2.0900192260742188,-14.981796264648438,8.110933303833008,-0.9756012558937073,0.05757065862417221,0.0,0.0,0.0,1.4638530984811298,70,255,255,255
92,3.150616228999752,11.0631103515625,-2.1122801303863525,-14.977188110351562,8.161706924438477,-0.9389581084251404,0.0449240542948246,0.0,0.0,0.0,1.4517571539680443,70,255,255,255
93,3.1832011409996994,11.326690673828125,-2.1347053050994873,-14.97271728515625,8.176583290100098,-0.9115726351737976,0.04582493007183075,0.0,0.0,0.0,1.442188549329444,70,255,255,255
94,3.2200914549998743,11.657347679138184,-2.1574740409851074,-14.967376708984375,8.21765422821045,-0.855930745601654,0.015731342136859894,0.0,0.0,0.0,1.4369334667084452,70,255,255,255
95,3.2534062869999616,11.92284870147705,-2.175049066543579,-14.963180541992188,8.224312782287598,-0.8259897232055664,0.02219315990805626,0.0,0.0,0.0,1.4252736148238603,70,255,255,255
96,3.2957365889997163,12.187859535217285,-2.192704200744629,-14.959274291992188,8.213265419006348,-0.791802167892456,0.01368417777121067,0.0,0.0,0.0,1.4143655733150047,70,255,255,255
97,3.3304743029998463,12.453178405761719,-2.210003614425659,-14.95684814453125,8.232293128967285,-0.755264401435852,-0.006494532804936171,0.0,0.0,0.0,1.4104328833332846,70,255,255,255
98,3.362041023999609,12.719453811645508,-2.226547956466675,-14.955520629882812,8.287460327148438,-0.7366175055503845,0.031764812767505646,0.0,0.0,0.0,1.4067637131414281,70,255,255,255
99,3.394885475999672,12.986759185791016,-2.243408441543579,-14.9532470703125,8.306918144226074,-0.7138698697090149,0.05402306094765663,0.0,0.0,0.0,1.4042727254158225,70,255,255,255
100,3.435733847999927,13.321745872497559,-2.264805316925049,-14.949859619140625,8.323131561279297,-0.6824808120727539,0.05771903693675995,0.0,0.0,0.0,1.4020973222793913,70,255,255,255
101,3.466061979999722,13.591204643249512,-2.282893419265747,-14.946426391601562,8.364359855651855,-0.6628599166870117,0.07205048948526382,0.0,0.0,0.0,1.4008199370625347,70,255,255,255
102,3.500269374999789,13.861790657043457,-2.3023362159729004,-14.941925048828125,8.368005752563477,-0.6546977758407593,0.07237038016319275,0.0,0.0,0.0,1.3975458468183912,70,255,255,255
103,3.5363853929998186,14.132375717163086,-2.3219969272613525,-14.937240600585938,8.357595443725586,-0.6383182406425476,0.09763933718204498,0.0,0.0,0.0,1.396189498875214,70,255,255,255
104,3.5688176310000017,14.402456283569336,-2.341747283935547,-14.931869506835938,8.344849586486816,-0.6316424608230591,0.1315680593252182,0.0,0.0,0.0,1.3969759303451144,70,255,255,255
105,3.6086141699997825,14.738717079162598,-2.363360643386841,-14.92510986328125,8.316375732421875,-0.6198504567146301,0.16203345358371735,0.0,0.0,0.0,1.4001320425529673,70,255,255,255
106,3.63732403899985,15.00612735748291,-2.3800771236419678,-14.919906616210938,8.27175521850586,-0.5999390482902527,0.1553693413734436,0.0,0.0,0.0,1.4056831355291284,70,255,255,255
107,3.6653948279999895,15.272710800170898,-2.3972344398498535,-14.914993286132812,8.247174263000488,-0.5897733569145203,0.15108045935630798,0.0,0.0,0.0,1.410185342509962,70,255,255,255
108,3.6986287269996865,15.537825584411621,-2.4146268367767334,-14.90966796875,8.209254264831543,-0.5847974419593811,0.1714051216840744,0.0,0.0,0.0,1.4208662163778336,70,255,255,255
109,3.734911949999969,15.802544593811035,-2.4320740699768066,-14.905303955078125,8.155054092407227,-0.5724040865898132,0.15389415621757507,0.0,0.0,0.0,1.42694341682734,70,255,255,255
110,3.76766015999965,16.06496238708496,-2.4496588706970215,-14.901702880859375,8.086464881896973,-0.559984564781189,0.13610424101352692,0.0,0.0,0.0,1.438198734542342,70,255,255,255
111,3.8005041999999776,16.325143814086914,-2.46734356880188,-14.898513793945312,8.022547721862793,-0.5512781739234924,0.11046186089515686,0.0,0.0,0.0,1.44934366423016,70,255,255,255
112,3.837581174999741,16.64661407470703,-2.489595651626587,-14.895233154296875,7.908324241638184,-0.5446730256080627,0.11290357261896133,0.0,0.0,0.0,1.461289140141656,70,255,255,255
113,3.870167513999604,16.90071678161621,-2.5066425800323486,-14.893264770507812,7.807422637939453,-0.5315937995910645,0.0912095233798027,0.0,0.0,0.0,1.4673166726368323,70,255,255,255
114,3.9027598699999544,17.151714324951172,-2.5238425731658936,-14.892349243164062,7.705967903137207,-0.5259238481521606,0.052319351583719254,0.0,0.0,0.0,1.4804439262820508,70,255,255,255
115,3.942566023999916,17.398319244384766,-2.5412542819976807,-14.892288208007812,7.56464147567749,-0.5231139659881592,0.025969674810767174,0.0,0.0,0.0,1.4871172753415713,70,255,255,255
116,3.9740351689997624,17.641252517700195,-2.558591604232788,-14.889373779296875,7.483977794647217,-0.5268097519874573,0.022155342623591423,0.0,0.0,0.0,1.5015830337506637,70,255,255,255
117,4.005017449999741,17.88088035583496,-2.575704574584961,-14.884231567382812,7.367401599884033,-0.5151939392089844,0.027465810999274254,0.0,0.0,0.0,1.515693659628394,70,255,255,255
118,4.0442895119999775,18.175317764282227,-2.5973827838897705,-14.878799438476562,7.236476898193359,-0.519664466381073,-0.006178178358823061,0.0,0.0,0.0,1.522993251018247,70,255,255,255
119,4.079217072999654,18.406694412231445,-2.615211009979248,-14.87591552734375,7.105767726898193,-0.5210371017456055,-0.04310789331793785,0.0,0.0,0.0,1.5394336102175785,70,255,255,255
120,4.10729920599988,18.632558822631836,-2.6328060626983643,-14.875869750976562,6.9785332679748535,-0.5307377576828003,-0.05387990549206734,0.0,0.0,0.0,1.554445316650137,70,255,255,255
121,4.145686698999725,18.8538818359375,-2.6508214473724365,-14.876632690429688,6.83211088180542,-0.5398390293121338,-0.055079974234104156,0.0,0.0,0.0,1.5684299750083066,70,255,255,255
122,4.178999071999897,19.070621490478516,-2.6694819927215576,-14.87774658203125,6.685719966888428,-0.5507043600082397,-0.06540720164775848,0.0,0.0,0.0,1.5748400705940728,70,255,255,255
123,4.211593286999687,19.334257125854492,-2.693563461303711,-14.880340576171875,6.47070837020874,-0.559076189994812,-0.1004108265042305,0.0,0.0,0.0,1.5890533613318258,70,255,255,255
124,4.247789893999652,19.53788185119629,-2.710270404815674,-14.881500244140625,6.313368320465088,-0.5539761185646057,-0.099550761282444,0.0,0.0,0.0,1.5940273472997668,70,255,255,255
125,4.2818793679998635,19.736812591552734,-2.727393865585327,-14.88250732421875,6.173871040344238,-0.5508123636245728,-0.08248268812894821,0.0,0.0,0.0,1.6048003665413553,70,255,255,255
126,4.313960920999762,19.931364059448242,-2.7448008060455322,-14.883392333984375,6.023996353149414,-0.5523027181625366,-0.08009196817874908,0.0,0.0,0.0,1.613495321184355,70,255,255,255
127,4.35084763299983,20.12061882019043,-2.762094259262085,-14.88372802734375,5.856174468994141,-0.5399101376533508,-0.06852695345878601,0.0,0.0,0.0,1.617404442190428,70,255,255,255
128,4.3888496589997885,20.30455780029297,-2.778825521469116,-14.882293701171875,5.721226215362549,-0.5295814275741577,-0.0777960792183876,0.0,0.0,0.0,1.6237867077428028,70,255,255,255
129,4.42089989599981,20.484264373779297,-2.795523166656494,-14.882049560546875,5.5857133865356445,-0.5214052796363831,-0.11565983295440674,0.0,0.0,0.0,1.6293033127828473,70,255,255,255
130,4.463805255999887,20.702333450317383,-2.816810369491577,-14.883255004882812,5.377184867858887,-0.5295129418373108,-0.1215282455086708,0.0,0.0,0.0,1.631994570222427,70,255,255,255
131,4.492213108999749,20.871376037597656,-2.8337655067443848,-14.886001586914062,5.236096382141113,-0.5174872875213623,-0.13970349729061127,0.0,0.0,0.0,1.6331268131598742,70,255,255,255
132,4.525514304999888,21.036415100097656,-2.8505051136016846,-14.890426635742188,5.093087673187256,-0.5110485553741455,-0.15072859823703766,0.0,0.0,0.0,1.634302066148926,70,255,255,255
133,4.569515868999588,21.196325302124023,-2.867435932159424,-14.89453125,4.907085418701172,-0.5056367516517639,-0.13476884365081787,0.0,0.0,0.0,1.6346960808322033,70,255,255,255
134,4.595828529999835,21.350317001342773,-2.884180784225464,-14.8985595703125,4.735574722290039,-0.4913339614868164,-0.13761115074157715,0.0,0.0,0.0,1.6341685086202586,70,255,255,255
135,4.626330126999619,21.50028419494629,-2.898726224899292,-14.902511596679688,4.5781755447387695,-0.48126062750816345,-0.10837531089782715,0.0,0.0,0.0,1.6323620864528579,70,255,255,255
136,4.660123013999964,21.681657791137695,-2.9159653186798096,-14.906112670898438,4.427288055419922,-0.4560089111328125,-0.08876180648803711,0.0,0.0,0.0,1.628987994509782,70,255,255,255
137,4.69524290399977,21.822607040405273,-2.929530143737793,-14.909133911132812,4.307283878326416,-0.4438894987106323,-0.10384201258420944,0.0,0.0,0.0,1.626973579461246,70,255,255,255
138,4.730951987000026,21.959293365478516,-2.9431982040405273,-14.9124755859375,4.17739200592041,-0.4449256956577301,-0.12703832983970642,0.0,0.0,0.0,1.6221292894383919,70,255,255,255
139,4.764360932999807,22.096162796020508,-2.9548158645629883,-14.91302490234375,4.07393741607666,-0.4403795897960663,-0.14752300083637238,0.0,0.0,0.0,1.616722806109422,70,255,255,255
140,4.795577229999708,22.228736877441406,-2.9665298461914062,-14.914474487304688,3.937575340270996,-0.42553314566612244,-0.14308564364910126,0.0,0.0,0.0,1.6133132941238482,70,255,255,255
141,4.828947574999802,22.356786727905273,-2.9783787727355957,-14.915695190429688,3.8030738830566406,-0.41982248425483704,-0.1341448277235031,0.0,0.0,0.0,1.6073708496255,70,255,255,255
142,4.864657412999804,22.511558532714844,-2.993349075317383,-14.9178466796875,3.6909868717193604,-0.413582980632782,-0.14556680619716644,0.0,0.0,0.0,1.6008058912223455,70,255,255,255
143,4.897173504999955,22.63186264038086,-3.005157947540283,-14.920181274414062,3.515349864959717,-0.4042537212371826,-0.1618514209985733,0.0,0.0,0.0,1.5974381908658857,70,255,255,255
144,4.931622379999681,22.747201919555664,-3.0167577266693115,-14.921875,3.4067883491516113,-0.38405269384384155,-0.12210717052221298,0.0,0.0,0.0,1.5903722918616876,70,255,255,255
145,4.966454092999811,22.857450485229492,-3.028064727783203,-14.923599243164062,3.2528340816497803,-0.36796289682388306,-0.13817854225635529,0.0,0.0,0.0,1.5827531211410253,70,255,255,255
146,4.998867022000013,22.96359634399414,-3.038259267807007,-14.923751831054688,3.127138137817383,-0.34366416931152344,-0.10669693350791931,0.0,0.0,0.0,1.57988223348592,70,255,255,255
147,5.032770130999779,23.066139221191406,-3.047475814819336,-14.922195434570312,3.0213935375213623,-0.3337394595146179,-0.09873055666685104,0.0,0.0,0.0,1.5736408491552103,70,255,255,255
148,5.068397381999603,23.188684463500977,-3.0588362216949463,-14.920974731445312,2.882538318634033,-0.32001063227653503,-0.09484963119029999,0.0,0.0,0.0,1.5672684372988686,70,255,255,255
149,5.1051431399996545,23.281993865966797,-3.0676779747009277,-14.919448852539062,2.737205743789673,-0.2996988892555237,-0.06090834364295006,0.0,0.0,0.0,1.5640002060091234,70,255,255,255
150,5.140417585999785,23.37034034729004,-3.0741090774536133,-14.918655395507812,2.6249752044677734,-0.2724025547504425,-0.025124581530690193,0.0,0.0,0.0,1.560894161229764,70,255,255,255
151,5.177950360999603,23.454607009887695,-3.079714298248291,-14.91796875,2.530822515487671,-0.26090312004089355,-0.027395732700824738,0.0,0.0,0.0,1.5547080374916733,70,255,255,255
152,5.2132827509999515,23.53604507446289,-3.0854578018188477,-14.917465209960938,2.446338415145874,-0.2597455084323883,-0.047215066850185394,0.0,0.0,0.0,1.5497641452440503,70,255,255,255
153,5.241027089999989,23.614280700683594,-3.091478109359741,-14.917343139648438,2.349205493927002,-0.25122034549713135,-0.03568391874432564,0.0,0.0,0.0,1.5452440950839132,70,255,255,255
154,5.28788771399968,23.709335327148438,-3.098235607147217,-14.916412353515625,2.2477610111236572,-0.23362667858600616,-0.027093619108200073,0.0,0.0,0.0,1.5414729258223066,70,255,255,255
155,5.31235244599975,23.782550811767578,-3.103428602218628,-14.915267944335938,2.145946502685547,-0.2230542004108429,-0.0187071580439806,0.0,0.0,0.0,1.5414729258223066,70,255,255,255
156,5.349628780999865,23.852306365966797,-3.108694553375244,-14.914108276367188,2.0500736236572266,-0.215038001537323,-0.028055766597390175,0.0,0.0,0.0,1.5375942980107151,70,255,255,255
157,5.389255070999752,23.920373916625977,-3.114217758178711,-14.912353515625,1.9845199584960938,-0.20217958092689514,-0.00699792942032218,0.0,0.0,0.0,1.5339184699161335,70,255,255,255
158,5.4188538379999045,23.988428115844727,-3.120633363723755,-14.908493041992188,1.8873226642608643,-0.1879875361919403,-0.006339551415294409,0.0,0.0,0.0,1.5333452244914938,70,255,255,255
159,5.450515462999647,24.052505493164062,-3.1268491744995117,-14.90478515625,1.7755261659622192,-0.17742399871349335,0.005943607073277235,0.0,0.0,0.0,1.53222549841117,70,255,255,255
160,5.484386748999896,24.127399444580078,-3.1346781253814697,-14.90057373046875,1.652656078338623,-0.17688708007335663,0.011169355362653732,0.0,0.0,0.0,1.5317153699043653,70,255,255,255
161,5.51633499899981,24.18421745300293,-3.1403396129608154,-14.8961181640625,1.5424342155456543,-0.17499318718910217,-0.00476315151900053,0.0,0.0,0.0,1.5316136371507243,70,255,255,255
162,5.553655252999761,24.23904037475586,-3.1455278396606445,-14.891510009765625,1.43094003200531,-0.17338408529758453,-0.028364332392811775,0.0,0.0,0.0,1.5323177769429412,70,255,255,255
163,5.586075728999731,24.290369033813477,-3.1509246826171875,-14.888046264648438,1.3634456396102905,-0.1738235503435135,-0.03385407477617264,0.0,0.0,0.0,1.5329839666896246,70,255,255,255
164,5.61633687199992,24.338821411132812,-3.1565794944763184,-14.884994506835938,1.2847191095352173,-0.17440451681613922,-0.028399823233485222,0.0,0.0,0.0,1.5337492260288588,70,255,255,255
165,5.647168808999595,24.383563995361328,-3.1615588665008545,-14.884841918945312,1.2102746963500977,-0.17202696204185486,-0.05183591693639755,0.0,0.0,0.0,1.5349721496014233,70,255,255,255
166,5.684790341999815,24.435897827148438,-3.1674399375915527,-14.885986328125,1.1238330602645874,-0.15430161356925964,-0.04938824474811554,0.0,0.0,0.0,1.5359671065846767,70,255,255,255
167,5.7168447069998365,24.474700927734375,-3.1718971729278564,-14.887054443359375,1.0627350807189941,-0.14553609490394592,-0.04838809370994568,0.0,0.0,0.0,1.5371428922059467,70,255,255,255
168,5.750458030999653,24.511268615722656,-3.176152467727661,-14.888137817382812,1.012690544128418,-0.12909746170043945,-0.045167356729507446,0.0,0.0,0.0,1.5387097630332949,70,255,255,255
169,5.787788673999785,24.54783821105957,-3.1803646087646484,-14.890762329101562,0.9247139096260071,-0.1313217431306839,-0.05321492254734039,0.0,0.0,0.0,1.5407871618416111,70,255,255,255
170,5.81993421199968,24.581945419311523,-3.1845691204071045,-14.893020629882812,0.8669472336769104,-0.12127601355314255,-0.03597884625196457,0.0,0.0,0.0,1.541656950253631,70,255,255,255
171,5.857166849999885,24.613819122314453,-3.188878297805786,-14.895034790039062,0.8268171548843384,-0.12072272598743439,-0.033807773143053055,0.0,0.0,0.0,1.5434643045274135,70,255,255,255
172,5.898523131999809,24.650981903076172,-3.194464921951294,-14.898361206054688,0.7464309930801392,-0.12548121809959412,-0.04625635966658592,0.0,0.0,0.0,1.544543816875277,70,255,255,255
173,5.931947679999666,24.679780960083008,-3.1990201473236084,-14.903045654296875,0.7083905935287476,-0.11883433908224106,-0.04868267476558685,0.0,0.0,0.0,1.5467889948322684,70,255,255,255
174,5.95900806499958,24.706178665161133,-3.2032930850982666,-14.907546997070312,0.631707489490509,-0.10554882138967514,-0.05750015005469322,0.0,0.0,0.0,1.5477172396302155,70,255,255,255
175,6.000594767999701,24.730323791503906,-3.2072057723999023,-14.912399291992188,0.5889982581138611,-0.09227922558784485,-0.048958197236061096,0.0,0.0,0.0,1.5501079593407796,70,255,255,255
176,6.0344047749999845,24.75372886657715,-3.210023880004883,-14.91796875,0.5375800728797913,-0.08818802237510681,-0.05492030456662178,0.0,0.0,0.0,1.5524394237170893,70,255,255,255
177,6.059192565999638,24.775484085083008,-3.2120261192321777,-14.923873901367188,0.47198814153671265,-0.0827348530292511,-0.03941083699464798,0.0,0.0,0.0,1.5536741983565046,70,255,255,255
178,6.103465996999603,24.800189971923828,-3.2143688201904297,-14.93011474609375,0.4063023328781128,-0.07092079520225525,-0.01566135883331299,0.0,0.0,0.0,1.556436961671353,70,255,255,255
179,6.141115874999741,24.817096710205078,-3.2163827419281006,-14.93463134765625,0.36809319257736206,-0.07620025426149368,-0.026421895250678062,0.0,0.0,0.0,1.558543388935551,70,255,255,255
180,6.1693729749999875,24.8365421295166,-3.2183022499084473,-14.936019897460938,0.32597923278808594,-0.07936989516019821,-0.02762385457754135,0.0,0.0,0.0,1.5598257010004242,70,255,255,255
181,6.20126438699981,24.855684280395508,-3.2202117443084717,-14.936416625976562,0.29615429043769836,-0.07004249095916748,-0.02513858675956726,0.0,0.0,0.0,1.561076987238598,70,255,255,255
182,6.233260095999867,24.872865676879883,-3.2221360206604004,-14.936782836914062,0.2650619447231293,-0.07556328177452087,-0.02848787046968937,0.0,0.0,0.0,1.5632732961895863,70,255,255,255
183,6.269083952999608,24.888111114501953,-3.224313735961914,-14.93743896484375,0.22813747823238373,-0.07196652144193649,-0.026250891387462616,0.0,0.0,0.0,1.5650502904269417,70,255,255,255
184,6.307384785999602,24.90526580810547,-3.2249958515167236,-14.943679809570312,0.19251906871795654,-0.06808149814605713,-0.01708301529288292,0.0,0.0,0.0,1.5671740282382254,70,255,255,255
185,6.337402600999667,24.917198181152344,-3.225299119949341,-14.94921875,0.1419782042503357,-0.06076240539550781,-0.024640673771500587,0.0,0.0,0.0,1.5683243806710851,70,255,255,255
186,6.371434841999871,24.92613983154297,-3.225802183151245,-14.954437255859375,0.07020419836044312,-0.06069616973400116,-0.02390587329864502,0.0,0.0,0.0,1.5689165345394642,70,255,255,255
187,6.40936241099962,24.933879852294922,-3.226844549179077,-14.960067749023438,0.03210163116455078,-0.05393054336309433,-0.035227220505476,0.0,0.0,0.0,1.5699386557658366,70,255,255,255
188,6.440885590999642,24.94251823425293,-3.228685140609741,-14.967254638671875,-0.0019751889631152153,-0.05594605579972267,-0.023142576217651367,0.0,0.0,0.0,1.5708597100288404,70,255,255,255
189,6.482633438999983,24.949581146240234,-3.2305169105529785,-14.974105834960938,-0.021809697151184082,-0.0397467277944088,-0.04178301990032196,0.0,0.0,0.0,1.571637486225198,70,255,255,255
190,6.5141672909999215,24.956769943237305,-3.232177495956421,-14.981903076171875,-0.03968632593750954,-0.020701328292489052,-0.03291018679738045,0.0,0.0,0.0,1.5722843680539784,70,255,255,255
191,6.54818282899987,24.963237762451172,-3.2326443195343018,-14.989151000976562,-0.06404139846563339,-0.017783643677830696,-0.03988291695713997,0.0,0.0,0.0,1.572308602819898,70,255,255,255
192,6.582077924999794,24.96969223022461,-3.2324230670928955,-14.99774169921875,-0.09130457788705826,-0.009210239164531231,-0.04474024474620819,0.0,0.0,0.0,1.5733728019914937,70,255,255,255
193,6.611686974999884,24.975078582763672,-3.2321839332580566,-15.005325317382812,-0.08374752104282379,-0.005552033428102732,-0.02875743992626667,0.0,0.0,0.0,1.574611038740326,70,255,255,255
194,6.642672518999916,24.979177474975586,-3.23209810256958,-15.01165771484375,-0.13024848699569702,-0.004329298622906208,-0.014530958607792854,0.0,0.0,0.0,1.5747532515425364,70,255,255,255
195,6.6760661499997696,24.985275268554688,-3.232145071029663,-15.01806640625,-0.14557373523712158,-0.0074628908187150955,-0.03173022344708443,0.0,0.0,0.0,1.5748541853478504,70,255,255,255
196,6.71596286499971,24.991619110107422,-3.232757806777954,-15.025390625,-0.18329006433486938,-0.016852540895342827,-0.024754423648118973,0.0,0.0,0.0,1.5747961284360865,70,255,255,255
197,6.745064080999782,24.994709014892578,-3.233741521835327,-15.030670166015625,-0.19574002921581268,-0.024486549198627472,0.0025686915032565594,0.0,0.0,0.0,1.5750673713931111,70,255,255,255
198,6.779114618999756,24.996896743774414,-3.234821081161499,-15.034805297851562,-0.21783806383609772,-0.020554285496473312,0.0035810607951134443,0.0,0.0,0.0,1.5759828330178258,70,255,255,255
199,6.816138129999672,25.00074005126953,-3.2377471923828125,-15.037704467773438,-0.2218385487794876,-0.02170107141137123,-6.452325033023953e-05,0.0,0.0,0.0,1.576184434312345,70,255,255,255
200,6.8517055909997,25.00318145751953,-3.2406184673309326,-15.040283203125,-0.263389527797699,-0.020763030275702477,0.020271291956305504,0.0,0.0,0.0,1.5761964185372503,70,255,255,255
201,6.886232202999963,25.003868103027344,-3.2433431148529053,-15.0418701171875,-0.25760847330093384,-0.018120383843779564,0.047114670276641846,0.0,0.0,0.0,1.5759440840239654,70,255,255,255
202,6.92039666599976,25.004302978515625,-3.246286392211914,-15.043609619140625,-0.3006404638290405,-0.018036723136901855,0.06616640090942383,0.0,0.0,0.0,1.5759825667017169,70,255,255,255
203,6.956836098999702,25.005434036254883,-3.247204065322876,-15.047088623046875,-0.3016703426837921,-0.012374306097626686,0.07405411452054977,0.0,0.0,0.0,1.575918384519446,70,255,255,255
204,6.989414423999733,25.005756378173828,-3.248180866241455,-15.050323486328125,-0.29027804732322693,-0.016788052394986153,0.059261247515678406,0.0,0.0,0.0,1.5755792309546244,70,255,255,255
205,7.023955237999871,25.005447387695312,-3.249185085296631,-15.05364990234375,-0.298999547958374,-0.01150469109416008,0.03769670054316521,0.0,0.0,0.0,1.575334752766555,70,255,255,255
206,7.055828504999681,25.00705909729004,-3.250070095062256,-15.057083129882812,-0.32662662863731384,-0.0057279313914477825,0.03341435268521309,0.0,0.0,0.0,1.5747400688951405,70,255,255,255
207,7.094840284999918,25.01042366027832,-3.250922441482544,-15.060516357421875,-0.32561928033828735,-0.0018046330660581589,0.027103368192911148,0.0,0.0,0.0,1.5738397872886392,70,255,255,255
208,7.135560901999725,25.01238441467285,-3.2517261505126953,-15.064163208007812,-0.33889731764793396,0.006190187763422728,0.02694178745150566,0.0,0.0,0.0,1.5732705366056348,70,255,255,255
209,7.165683222999633,25.01261329650879,-3.2523341178894043,-15.067123413085938,-0.3342202603816986,0.003695995081216097,0.012962490320205688,0.0,0.0,0.0,1.5723272449475287,70,255,255,255
210,7.196470837999641,25.016942977905273,-3.253984212875366,-15.072219848632812,-0.2989317774772644,-0.002959071658551693,0.01594952866435051,0.0,0.0,0.0,1.5720027387687026,70,255,255,255
211,7.228615505999642,25.02080535888672,-3.2560653686523438,-15.077362060546875,-0.3605857789516449,-0.0063286698423326015,0.03249041363596916,0.0,0.0,0.0,1.5706957924637461,70,255,255,255
212,7.259652818999712,25.022092819213867,-3.258007764816284,-15.0811767578125,-0.3648548126220703,0.003908343613147736,0.045457515865564346,0.0,0.0,0.0,1.5704366668896814,70,255,255,255
213,7.2920740109998405,25.021743774414062,-3.25964093208313,-15.08447265625,-0.3977527320384979,0.007636840455234051,0.045498792082071304,0.0,0.0,0.0,1.5695507663530666,70,255,255,255
214,7.335646685000029,25.02364730834961,-3.262869119644165,-15.087890625,-0.4211668372154236,0.004905811510980129,0.052043698728084564,0.0,0.0,0.0,1.5690138730773067,70,255,255,255
215,7.364337203999639,25.023775100708008,-3.265805959701538,-15.090362548828125,-0.437549889087677,-0.009212222881615162,0.032844267785549164,0.0,0.0,0.0,1.5682827022000254,70,255,255,255
216,7.400904254999659,25.02227210998535,-3.2689430713653564,-15.09307861328125,-0.434426873922348,-0.011600332334637642,0.0327644981443882,0.0,0.0,0.0,1.5681616615284812,70,255,255,255
217,7.444480956000007,25.019895553588867,-3.2720255851745605,-15.095687866210938,-0.44408053159713745,-0.006546561606228352,0.02433452196419239,0.0,0.0,0.0,1.5672185030284296,70,255,255,255
218,7.469190894999883,25.018299102783203,-3.2753896713256836,-15.099746704101562,-0.45152559876441956,-0.01054795365780592,0.04465985298156738,0.0,0.0,0.0,1.5668965268526391,70,255,255,255
219,7.5003704239998115,25.015230178833008,-3.2784905433654785,-15.103515625,-0.45334839820861816,-0.00267248903401196,0.03152935206890106,0.0,0.0,0.0,1.566645790236008,70,255,255,255
220,7.55446093899991,25.010175704956055,-3.2818377017974854,-15.107437133789062,-0.4457860589027405,0.009879485704004765,0.040432073175907135,0.0,0.0,0.0,1.566253639765494,70,255,255,255
221,7.574738179999713,25.00661849975586,-3.2842419147491455,-15.109237670898438,-0.43113231658935547,0.014647142961621284,0.06356631964445114,0.0,0.0,0.0,1.565890650908916,70,255,255,255
222,7.612432567999804,25.00450897216797,-3.286381721496582,-15.110626220703125,-0.43247395753860474,0.023808877915143967,0.07852604240179062,0.0,0.0,0.0,1.5654449709004914,70,255,255,255
223,7.638124392000009,25.000125885009766,-3.288278579711914,-15.111038208007812,-0.48609045147895813,0.015856217592954636,0.09893959015607834,0.0,0.0,0.0,1.564984377189962,70,255,255,255
224,7.67017574700003,24.993501663208008,-3.2902309894561768,-15.110671997070312,-0.5371953845024109,0.016184644773602486,0.11239304393529892,0.0,0.0,0.0,1.5649339102873052,70,255,255,255
225,7.703072945999793,24.98845100402832,-3.293079376220703,-15.113296508789062,-0.5679481625556946,0.019114026799798012,0.09475815296173096,0.0,0.0,0.0,1.5649789177097275,70,255,255,255
226,7.740890679999666,24.981740951538086,-3.2964539527893066,-15.116683959960938,-0.5816715359687805,0.03022034280002117,0.12004515528678894,0.0,0.0,0.0,1.5653638776452985,70,255,255,255
227,7.778790313999707,24.974512100219727,-3.298555612564087,-15.118820190429688,-0.5915167331695557,0.04449635371565819,0.10275736451148987,0.0,0.0,0.0,1.5652058190346023,70,255,255,255
228,7.813883321999583,24.965991973876953,-3.3000741004943848,-15.12103271484375,-0.592377245426178,0.04707345739006996,0.1003965362906456,0.0,0.0,0.0,1.5645034102970938,70,255,255,255
229,7.851437991999774,24.959091186523438,-3.3023455142974854,-15.12530517578125,-0.6330404877662659,0.0558973029255867,0.10412780195474625,0.0,0.0,0.0,1.564588764610031,70,255,255,255
230,7.881150924999929,24.950546264648438,-3.304145574569702,-15.129180908203125,-0.6337062120437622,0.05530247464776039,0.0770428255200386,0.0,0.0,0.0,1.565362412906699,70,255,255,255
231,7.917261252999651,24.940338134765625,-3.3056821823120117,-15.133209228515625,-0.6592441201210022,0.06304874271154404,0.07094549387693405,0.0,0.0,0.0,1.5656752011767288,70,255,255,255
232,7.9583034089996545,24.926780700683594,-3.307253360748291,-15.138504028320312,-0.6733981966972351,0.07288797944784164,0.055246639996767044,0.0,0.0,0.0,1.5657475060003243,70,255,255,255
233,7.984732487999736,24.920188903808594,-3.3091673851013184,-15.144119262695312,-0.6589942574501038,0.06570755690336227,0.06067712977528572,0.0,0.0,0.0,1.5661029048477955,70,255,255,255
234,8.016680241999893,24.911867141723633,-3.310990810394287,-15.149154663085938,-0.6918686032295227,0.06472533196210861,0.0663699358701706,0.0,0.0,0.0,1.566644724971572,70,255,255,255
235,8.057289935999961,24.90102195739746,-3.312577724456787,-15.153823852539062,-0.726809024810791,0.06090991944074631,0.04997250437736511,0.0,0.0,0.0,1.5669414011170069,70,255,255,255
236,8.089639872999669,24.887378692626953,-3.3160204887390137,-15.157989501953125,-0.7427040338516235,0.07533389329910278,0.03706716373562813,0.0,0.0,0.0,1.566624618105342,70,255,255,255
237,8.116910319999988,24.878847122192383,-3.3184807300567627,-15.15997314453125,-0.7490922212600708,0.06924287974834442,0.04034295678138733,0.0,0.0,0.0,1.5668340757250767,70,255,255,255
238,8.153318067999862,24.863901138305664,-3.321967840194702,-15.1629638671875,-0.7233085632324219,0.07847068458795547,0.040161535143852234,0.0,0.0,0.0,1.5669272863632295,70,255,255,255
239,8.185791203999997,24.85088539123535,-3.3240060806274414,-15.164199829101562,-0.7257201075553894,0.08163463324308395,0.07918686419725418,0.0,0.0,0.0,1.5673038573413667,70,255,255,255
240,8.218518699000015,24.839336395263672,-3.327936887741089,-15.165130615234375,-0.7256007194519043,0.08467049151659012,0.09582404792308807,0.0,0.0,0.0,1.568067785100056,70,255,255,255
241,8.257368539999788,24.828134536743164,-3.332204580307007,-15.165634155273438,-0.7215093970298767,0.07094497978687286,0.08231338858604431,0.0,0.0,0.0,1.5681661889023344,70,255,255,255
242,8.288083616999756,24.81515884399414,-3.3363537788391113,-15.165634155273438,-0.7416908740997314,0.06356034427881241,0.11725293844938278,0.0,0.0,0.0,1.5680673856258924,70,255,255,255
243,8.3206329489999,24.80132484436035,-3.3401429653167725,-15.164169311523438,-0.7037724852561951,0.05996330454945564,0.15677973628044128,0.0,0.0,0.0,1.5683427564826067,70,255,255,255
244,8.361028424999859,24.787588119506836,-3.345115900039673,-15.165069580078125,-0.7268902063369751,0.05977474898099899,0.1447567194700241,0.0,0.0,0.0,1.5684458208167926,70,255,255,255
245,8.395551681999677,24.77530860900879,-3.3488264083862305,-15.166259765625,-0.7428403496742249,0.0625242292881012,0.13787928223609924,0.0,0.0,0.0,1.5685173266920613,70,255,255,255
246,8.423763396999675,24.76178741455078,-3.3519489765167236,-15.167098999023438,-0.7401720285415649,0.06326866894960403,0.14970850944519043,0.0,0.0,0.0,1.568075508267217,70,255,255,255
247,8.461058903999856,24.748558044433594,-3.354585886001587,-15.168304443359375,-0.7338209748268127,0.0676162913441658,0.1313638687133789,0.0,0.0,0.0,1.5678842933009494,70,255,255,255
248,8.495358321999902,24.7385311126709,-3.356534242630005,-15.170394897460938,-0.7434406280517578,0.07444994151592255,0.15553943812847137,0.0,0.0,0.0,1.567180286666787,70,255,255,255
249,8.529457267999987,24.726787567138672,-3.3580455780029297,-15.171432495117188,-0.7754047513008118,0.07591317594051361,0.15949943661689758,0.0,0.0,0.0,1.5672246282989368,70,255,255,255
250,8.562815162999868,24.709346771240234,-3.3595640659332275,-15.172515869140625,-0.8055527806282043,0.07194216549396515,0.15659740567207336,0.0,0.0,0.0,1.5676050608606547,70,255,255,255
251,8.596593950999704,24.694791793823242,-3.361085891723633,-15.17254638671875,-0.7955482006072998,0.06729700416326523,0.16689756512641907,0.0,0.0,0.0,1.5676454077511695,70,255,255,255
252,8.62878699399971,24.68106460571289,-3.362903594970703,-15.17254638671875,-0.7694690227508545,0.06586750596761703,0.1842404156923294,0.0,0.0,0.0,1.5674757643897312,70,255,255,255
253,8.66602646399997,24.666990280151367,-3.364377975463867,-15.17132568359375,-0.7679877877235413,0.06807156652212143,0.20199158787727356,0.0,0.0,0.0,1.5680225113615245,70,255,255,255
254,8.698027293999985,24.65117645263672,-3.3655946254730225,-15.16925048828125,-0.7859770655632019,0.06588497757911682,0.19522050023078918,0.0,0.0,0.0,1.5684680582118948,70,255,255,255
255,8.73067657599995,24.636131286621094,-3.3659422397613525,-15.172042846679688,-0.817562997341156,0.07852570712566376,0.1685551255941391,0.0,0.0,0.0,1.5687470243360806,70,255,255,255
256,8.767239684999822,24.61543846130371,-3.365771770477295,-15.175582885742188,-0.8444809913635254,0.08146492391824722,0.20239758491516113,0.0,0.0,0.0,1.568327043832175,70,255,255,255
257,8.799652866999622,24.597135543823242,-3.3652946949005127,-15.176971435546875,-0.8424094915390015,0.08557204157114029,0.20923329889774323,0.0,0.0,0.0,1.5688141359955505,70,255,255,255
258,8.832344954999826,24.57839584350586,-3.3645970821380615,-15.177581787109375,-0.8222015500068665,0.08698593825101852,0.19870510697364807,0.0,0.0,0.0,1.5695060252467532,70,255,255,255
259,8.877016914999786,24.563650131225586,-3.3653993606567383,-15.18292236328125,-0.813728928565979,0.08865063637495041,0.17439581453800201,0.0,0.0,0.0,1.5697590255503107,70,255,255,255
260,8.902482039000006,24.548137664794922,-3.3656551837921143,-15.188095092773438,-0.802074670791626,0.0964660495519638,0.1377100944519043,0.0,0.0,0.0,1.5701975150237923,70,255,255,255
261,8.935504736999974,24.531539916992188,-3.365346908569336,-15.193115234375,-0.8135015964508057,0.11349256336688995,0.11285938322544098,0.0,0.0,0.0,1.570454243752876,70,255,255,255
262,8.978030165999826,24.51069450378418,-3.36348032951355,-15.198806762695312,-0.7663429975509644,0.11863678693771362,0.11852113902568817,0.0,0.0,0.0,1.5704336042544278,70,255,255,255
263,9.007234864999646,24.495689392089844,-3.360086441040039,-15.203903198242188,-0.7561579942703247,0.11787483841180801,0.10353337228298187,0.0,0.0,0.0,1.5705630338834056,70,255,255,255
264,9.039773137999873,24.479833602905273,-3.3564512729644775,-15.208358764648438,-0.762935996055603,0.12579619884490967,0.09809211641550064,0.0,0.0,0.0,1.5708927332263574,70,255,255,255
265,9.085089395999603,24.463701248168945,-3.3527395725250244,-15.212081909179688,-0.735356330871582,0.12936724722385406,0.1181308850646019,0.0,0.0,0.0,1.5710985955786205,70,255,255,255
266,9.111468998999953,24.450950622558594,-3.3480870723724365,-15.214492797851562,-0.7553504109382629,0.13799062371253967,0.13188087940216064,0.0,0.0,0.0,1.5707455935761305,70,255,255,255
267,9.140094975000011,24.44065284729004,-3.3427560329437256,-15.21673583984375,-0.7505246996879578,0.14057405292987823,0.14300058782100677,0.0,0.0,0.0,1.5698600925136792,70,255,255,255
268,9.176420107000013,24.426721572875977,-3.3359215259552,-15.218475341796875,-0.7269822359085083,0.14789359271526337,0.14015623927116394,0.0,0.0,0.0,1.5695403800248153,70,255,255,255
269,9.208723201999874,24.414854049682617,-3.3305373191833496,-15.21893310546875,-0.7094152569770813,0.1443323940038681,0.1398787647485733,0.0,0.0,0.0,1.5700533048507646,70,255,255,255
270,9.241388873999767,24.408605575561523,-3.326084852218628,-15.219635009765625,-0.7001907229423523,0.15263307094573975,0.12832525372505188,0.0,0.0,0.0,1.570333469397441,70,255,255,255
271,9.277835953999784,24.40318489074707,-3.3218491077423096,-15.220352172851562,-0.6769229173660278,0.15347044169902802,0.11607784032821655,0.0,0.0,0.0,1.570524551205654,70,255,255,255
272,9.31054351199964,24.396020889282227,-3.317394971847534,-15.220260620117188,-0.6951995491981506,0.1582459658384323,0.13407713174819946,0.0,0.0,0.0,1.569868215155004,70,255,255,255
273,9.343093167000006,24.387378692626953,-3.31284499168396,-15.219512939453125,-0.680260419845581,0.15972447395324707,0.15105915069580078,0.0,0.0,0.0,1.5698803325379638,70,255,255,255
274,9.37990235199959,24.381669998168945,-3.307339668273926,-15.219161987304688,-0.7076796889305115,0.15172052383422852,0.15846392512321472,0.0,0.0,0.0,1.5697497044864954,70,255,255,255
275,9.412548826999682,24.3761043548584,-3.3032259941101074,-15.218215942382812,-0.6946619153022766,0.1496942788362503,0.16176792979240417,0.0,0.0,0.0,1.569516811049168,70,255,255,255
276,9.444840309000028,24.369022369384766,-3.2991232872009277,-15.217376708984375,-0.7130454182624817,0.1506192982196808,0.15445946156978607,0.0,0.0,0.0,1.569484853116087,70,255,255,255
277,9.481574063999687,24.36094856262207,-3.2961390018463135,-15.217575073242188,-0.7193060517311096,0.1484861671924591,0.1293383091688156,0.0,0.0,0.0,1.5700355948295155,70,255,255,255
278,9.513935498999672,24.3554744720459,-3.296241283416748,-15.2205810546875,-0.7212486863136292,0.15641909837722778,0.13832494616508484,0.0,0.0,0.0,1.5701790060542162,70,255,255,255
279,9.546586492999722,24.34804344177246,-3.295964479446411,-15.223114013671875,-0.7253227233886719,0.14066046476364136,0.11493899673223495,0.0,0.0,0.0,1.569955167364595,70,255,255,255
280,9.583164913000019,24.336647033691406,-3.295569658279419,-15.22613525390625,-0.7119547128677368,0.1385323852300644,0.11890421062707901,0.0,0.0,0.0,1.5696964412646939,70,255,255,255
281,9.61562749399991,24.32956886291504,-3.295457124710083,-15.2286376953125,-0.7443322539329529,0.131980761885643,0.13971784710884094,0.0,0.0,0.0,1.5696925796811132,70,255,255,255
282,9.648215102999984,24.32491111755371,-3.2955102920532227,-15.232467651367188,-0.7125700116157532,0.1282682865858078,0.11821093410253525,0.0,0.0,0.0,1.568729713788995,70,255,255,255
283,9.695300321999639,24.318750381469727,-3.2952165603637695,-15.235504150390625,-0.6976948380470276,0.12605267763137817,0.12778240442276,0.0,0.0,0.0,1.567935425993879,70,255,255,255
284,9.731649928000024,24.311330795288086,-3.294790506362915,-15.237869262695312,-0.7057815194129944,0.12387523800134659,0.11561518907546997,0.0,0.0,0.0,1.5680741766866721,70,255,255,255
285,9.751152634999926,24.306503295898438,-3.293613910675049,-15.2415771484375,-0.6950762867927551,0.12746262550354004,0.11313454806804657,0.0,0.0,0.0,1.5678756380274066,70,255,255,255
286,9.787241169000026,24.299367904663086,-3.2917556762695312,-15.246063232421875,-0.7063342332839966,0.12449678033590317,0.110574871301651,0.0,0.0,0.0,1.5677929468755598,70,255,255,255
287,9.819789067999864,24.29245376586914,-3.2902755737304688,-15.248428344726562,-0.6627935767173767,0.1133507639169693,0.11920821666717529,0.0,0.0,0.0,1.5678222416475507,70,255,255,255
288,9.85238820199993,24.284866333007812,-3.2887747287750244,-15.2498779296875,-0.6443313956260681,0.11125799268484116,0.16223517060279846,0.0,0.0,0.0,1.5684727187438026,70,255,255,255
289,9.891453531000025,24.2828369140625,-3.287649154663086,-15.253768920898438,-0.6339816451072693,0.09687704592943192,0.17154309153556824,0.0,0.0,0.0,1.568259932172705,70,255,255,255
290,9.923346019999826,24.280290603637695,-3.2869296073913574,-15.2552490234375,-0.6333733201026917,0.09769722074270248,0.18517278134822845,0.0,0.0,0.0,1.5680522056076789,70,255,255,255
291,9.95607887999995,24.2757568359375,-3.2858009338378906,-15.256668090820312,-0.6226413249969482,0.09926310926675797,0.1855052411556244,0.0,0.0,0.0,1.5685867020384578,70,255,255,255
292,9.992373761999715,24.269912719726562,-3.2842187881469727,-15.257705688476562,-0.6140414476394653,0.09639622271060944,0.19506318867206573,0.0,0.0,0.0,1.5688275849590556,70,255,255,255
293,10.024630354999772,24.27013397216797,-3.283003091812134,-15.259857177734375,-0.5965180397033691,0.09746991842985153,0.19445158541202545,0.0,0.0,0.0,1.568676583725248,70,255,255,255
294,10.056362793999597,24.268627166748047,-3.281628131866455,-15.261398315429688,-0.5970190167427063,0.09486671537160873,0.211836576461792,0.0,0.0,0.0,1.5688568797310465,70,255,255,255
295,10.093067488999623,24.265718460083008,-3.2801191806793213,-15.261672973632812,-0.5829091668128967,0.09773541241884232,0.19760926067829132,0.0,0.0,0.0,1.5691378432260497,70,255,255,255
296,10.125351504999799,24.263866424560547,-3.277594566345215,-15.263046264648438,-0.6052765846252441,0.10255030542612076,0.2169843316078186,0.0,0.0,0.0,1.5692185370070793,70,255,255,255
297,10.157938630999979,24.26278305053711,-3.2742576599121094,-15.265121459960938,-0.6127073168754578,0.10065018385648727,0.20976921916007996,0.0,0.0,0.0,1.5695917790338538,70,255,255,255
298,10.19447528899991,24.25838279724121,-3.2698190212249756,-15.266998291015625,-0.6296680569648743,0.11202452331781387,0.19133463501930237,0.0,0.0,0.0,1.5698154845654204,70,255,255,255
299,10.226741903999937,24.252676010131836,-3.26625657081604,-15.26806640625,-0.6373757123947144,0.11035412549972534,0.17869871854782104,0.0,0.0,0.0,1.5695417116053603,70,255,255,255
300,10.259464350999679,24.251340866088867,-3.262284755706787,-15.27203369140625,-0.6570627093315125,0.11716579645872116,0.17744038999080658,0.0,0.0,0.0,1.5697045639060185,70,255,255,255
301,10.297073853999791,24.249940872192383,-3.257941246032715,-15.275787353515625,-0.6524977684020996,0.1301201730966568,0.17962829768657684,0.0,0.0,0.0,1.569972078437517,70,255,255,255
302,10.3290233849998,24.246679306030273,-3.2531850337982178,-15.278305053710938,-0.6657786965370178,0.14331743121147156,0.17538605630397797,0.0,0.0,0.0,1.5700628922306887,70,255,255,255
303,10.360952078999617,24.24138832092285,-3.248100519180298,-15.280044555664062,-0.6585817933082581,0.15268422663211823,0.19394491612911224,0.0,0.0,0.0,1.5704281447741932,70,255,255,255
304,10.39791367099997,24.241268157958984,-3.241358995437622,-15.284133911132812,-0.6659942269325256,0.16514427959918976,0.1786709576845169,0.0,0.0,0.0,1.5704530453303853,70,255,255,255
305,10.430473797999639,24.240142822265625,-3.235616683959961,-15.287185668945312,-0.6776542663574219,0.17501327395439148,0.16564272344112396,0.0,0.0,0.0,1.5706903329835114,70,255,255,255
306,10.462579990999984,24.236724853515625,-3.2296855449676514,-15.289520263671875,-0.6595932245254517,0.18319839239120483,0.18798065185546875,0.0,0.0,0.0,1.5699807337110598,70,255,255,255
307,10.499481662999642,24.233381271362305,-3.2240405082702637,-15.290969848632812,-0.6465088129043579,0.2008240669965744,0.1968529224395752,0.0,0.0,0.0,1.5697598244986377,70,255,255,255
308,10.531867000999682,24.232614517211914,-3.219984292984009,-15.293594360351562,-0.6569458842277527,0.21495160460472107,0.1988746076822281,0.0,0.0,0.0,1.569588183766382,70,255,255,255
309,10.564209373999802,24.229656219482422,-3.215153932571411,-15.295379638671875,-0.639969527721405,0.23102010786533356,0.19127123057842255,0.0,0.0,0.0,1.5694542267635512,70,255,255,255
310,10.601885123999637,24.224586486816406,-3.207963228225708,-15.296600341796875,-0.6191226840019226,0.2543773055076599,0.18981166183948517,0.0,0.0,0.0,1.5692887113018028,70,255,255,255
311,10.633814646999781,24.222322463989258,-3.2034342288970947,-15.298919677734375,-0.5862250328063965,0.275081068277359,0.20789748430252075,0.0,0.0,0.0,1.569787654532029,70,255,255,255
312,10.665911762999713,24.221725463867188,-3.1999082565307617,-15.302581787109375,-0.5894521474838257,0.29552993178367615,0.2035006284713745,0.0,0.0,0.0,1.5705262822603625,70,255,255,255
313,10.703144350000002,24.218868255615234,-3.1951472759246826,-15.305435180664062,-0.5913671255111694,0.3218766152858734,0.18754641711711884,0.0,0.0,0.0,1.5707385361992419,70,255,255,255
314,10.73547129399958,24.2146053314209,-3.189162254333496,-15.307601928710938,-0.5805054306983948,0.33892935514450073,0.17474234104156494,0.0,0.0,0.0,1.5712060541286053,70,255,255,255
315,10.767760241999895,24.215892791748047,-3.1845057010650635,-15.31109619140625,-0.61659836769104,0.36672598123550415,0.1628154218196869,0.0,0.0,0.0,1.5709555838280833,70,255,255,255
316,10.804659882999658,24.216474533081055,-3.1771388053894043,-15.315170288085938,-0.6176156401634216,0.4190520644187927,0.16971920430660248,0.0,0.0,0.0,1.5712346831103237,70,255,255,255
317,10.837036302999877,24.214401245117188,-3.169415235519409,-15.317230224609375,-0.6558033227920532,0.44191592931747437,0.15837834775447845,0.0,0.0,0.0,1.5710637081683405,70,255,255,255
318,10.869639042000017,24.20865821838379,-3.1601898670196533,-15.318450927734375,-0.7089276909828186,0.4801787734031677,0.178989440202713,0.0,0.0,0.0,1.5712875468579617,70,255,255,255
319,10.907029925999723,24.209787368774414,-3.1498050689697266,-15.319412231445312,-0.7019892930984497,0.5214933156967163,0.18087778985500336,0.0,0.0,0.0,1.5705196243576374,70,255,255,255
320,10.938916016999883,24.208349227905273,-3.1373071670532227,-15.320220947265625,-0.6973040699958801,0.5783044099807739,0.15188060700893402,0.0,0.0,0.0,1.5708550494969329,70,255,255,255
321,10.971731125999668,24.20482063293457,-3.1226208209991455,-15.320327758789062,-0.6950960755348206,0.6348416805267334,0.1754893660545349,0.0,0.0,0.0,1.5715305603074314,70,255,255,255
322,11.008710082999642,24.200389862060547,-3.1019227504730225,-15.319869995117188,-0.6997460126876831,0.7016106247901917,0.18294799327850342,0.0,0.0,0.0,1.57215107684142,70,255,255,255
323,11.040941160999864,24.202171325683594,-3.085089683532715,-15.321151733398438,-0.707177996635437,0.7668682932853699,0.18970103561878204,0.0,0.0,0.0,1.5729755915149084,70,255,255,255
324,11.073691483999937,24.201833724975586,-3.065526008605957,-15.321701049804688,-0.6905149221420288,0.8336896300315857,0.18774200975894928,0.0,0.0,0.0,1.5743094357468745,70,255,255,255
325,11.110323525999775,24.200185775756836,-3.043274164199829,-15.321502685546875,-0.6833451986312866,0.8956875801086426,0.19733037054538727,0.0,0.0,0.0,1.5758558002338292,70,255,255,255
326,11.142620803999762,24.202550888061523,-3.018852949142456,-15.3221435546875,-0.650651216506958,0.9658011794090271,0.18389174342155457,0.0,0.0,0.0,1.5767483586731692,70,255,255,255
327,11.175240506999671,24.20905113220215,-2.9924983978271484,-15.323699951171875,-0.6360162496566772,1.0194647312164307,0.1872301697731018,0.0,0.0,0.0,1.5787638389861411,70,255,255,255
328,11.212637730999631,24.213796615600586,-2.9564263820648193,-15.323760986328125,-0.6374273896217346,1.0972955226898193,0.19127200543880463,0.0,0.0,0.0,1.5819260764645013,70,255,255,255
329,11.244627705999847,24.214448928833008,-2.924677610397339,-15.32373046875,-0.6481416821479797,1.1600966453552246,0.16972188651561737,0.0,0.0,0.0,1.5829206339735913,70,255,255,255
330,11.277051586999733,24.21974754333496,-2.8911845684051514,-15.325607299804688,-0.6297259330749512,1.2280577421188354,0.15738815069198608,0.0,0.0,0.0,1.5860844693486054,70,255,255,255
331,11.313826935999714,24.225017547607422,-2.8550312519073486,-15.327239990234375,-0.6349500417709351,1.3010162115097046,0.18929216265678406,0.0,0.0,0.0,1.5888879790281318,70,255,255,255
332,11.346491078999861,24.227876663208008,-2.816056251525879,-15.32733154296875,-0.6021575331687927,1.3815200328826904,0.1920778602361679,0.0,0.0,0.0,1.5904656356578948,70,255,255,255
333,11.378990222999619,24.22921371459961,-2.774510145187378,-15.326828002929688,-0.5860127210617065,1.4413111209869385,0.19554640352725983,0.0,0.0,0.0,1.593936267190486,70,255,255,255
334,11.416021691999958,24.24091148376465,-2.7215850353240967,-15.327285766601562,-0.559350848197937,1.5233467817306519,0.18276742100715637,0.0,0.0,0.0,1.595799281531051,70,255,255,255
335,11.448412304999692,24.25000762939453,-2.6768479347229004,-15.326629638671875,-0.535315990447998,1.5862541198730469,0.21242986619472504,0.0,0.0,0.0,1.5998717874700001,70,255,255,255
336,11.480781311999635,24.2568359375,-2.6296122074127197,-15.324752807617188,-0.5401417016983032,1.651635766029358,0.2240983098745346,0.0,0.0,0.0,1.6039549460533096,70,255,255,255
337,11.518062238999846,24.264135360717773,-2.5797526836395264,-15.321609497070312,-0.520953893661499,1.724936842918396,0.2233588546514511,0.0,0.0,0.0,1.6060778849162662,70,255,255,255
338,11.550578106999637,24.278444290161133,-2.527323007583618,-15.316299438476562,-0.485379159450531,1.788407802581787,0.22432444989681244,0.0,0.0,0.0,1.6105567892375616,70,255,255,255
339,11.582506049999665,24.28993797302246,-2.472870111465454,-15.310256958007812,-0.4846039116382599,1.8394758701324463,0.2590222656726837,0.0,0.0,0.0,1.615809608171634,70,255,255,255
340,11.619561442999839,24.30051612854004,-2.4018468856811523,-15.300994873046875,-0.4701455235481262,1.9123681783676147,0.2833792269229889,0.0,0.0,0.0,1.6209953154462362,70,255,255,255
341,11.652019648999612,24.3111629486084,-2.342069387435913,-15.293182373046875,-0.4554114043712616,1.96396803855896,0.28104367852211,0.0,0.0,0.0,1.624179923477753,70,255,255,255
342,11.684449718999986,24.323862075805664,-2.2796106338500977,-15.285751342773438,-0.467288613319397,2.025505781173706,0.291540265083313,0.0,0.0,0.0,1.6287513726469285,70,255,255,255
343,11.722629678999965,24.333589553833008,-2.2150962352752686,-15.277374267578125,-0.46059972047805786,2.077446937561035,0.32281625270843506,0.0,0.0,0.0,1.6346626581605228,70,255,255,255
344,11.753942947999803,24.341232299804688,-2.1488428115844727,-15.26800537109375,-0.4425320029258728,2.1397767066955566,0.3234173357486725,0.0,0.0,0.0,1.6379573879031144,70,255,255,255
345,11.786241208999854,24.354551315307617,-2.0823495388031006,-15.260711669921875,-0.43989670276641846,2.2004966735839844,0.3174300491809845,0.0,0.0,0.0,1.6427494799686029,70,255,255,255
346,11.823715260999961,24.369834899902344,-1.9972444772720337,-15.25201416015625,-0.4482816159725189,2.2566144466400146,0.31041932106018066,0.0,0.0,0.0,1.6461520677353427,70,255,255,255
347,11.855827518999831,24.37928009033203,-1.92724609375,-15.244369506835938,-0.41937246918678284,2.2997634410858154,0.32880961894989014,0.0,0.0,0.0,1.6516869154288543,70,255,255,255
348,11.88815375799959,24.386552810668945,-1.8554363250732422,-15.236541748046875,-0.4202738404273987,2.3662667274475098,0.2957465648651123,0.0,0.0,0.0,1.6579309629206542,70,255,255,255
349,11.925444866999896,24.401334762573242,-1.782577395439148,-15.231491088867188,-0.4140005111694336,2.4193356037139893,0.27169930934906006,0.0,0.0,0.0,1.6607503184086665,70,255,255,255
350,11.957582828999875,24.41338348388672,-1.7078193426132202,-15.2266845703125,-0.4006299376487732,2.4741528034210205,0.24788910150527954,0.0,0.0,0.0,1.6670131411861513,70,255,255,255
351,11.990102837999984,24.422807693481445,-1.630898356437683,-15.221755981445312,-0.4215911030769348,2.532447576522827,0.24925680458545685,0.0,0.0,0.0,1.673000060474704,70,255,255,255
352,12.02778467500002,24.433317184448242,-1.5317925214767456,-15.216278076171875,-0.4442151188850403,2.5992934703826904,0.23610271513462067,0.0,0.0,0.0,1.6760850662814517,70,255,255,255
353,12.059798819999742,24.44748306274414,-1.450122594833374,-15.213348388671875,-0.4539162218570709,2.6472527980804443,0.23329950869083405,0.0,0.0,0.0,1.68197517966438,70,255,255,255
354,12.092154428999947,24.458457946777344,-1.3667033910751343,-15.210494995117188,-0.4475923776626587,2.690056800842285,0.22065600752830505,0.0,0.0,0.0,1.6879626315851506,70,255,255,255
355,12.129600399999617,24.466535568237305,-1.2818470001220703,-15.207275390625,-0.467415988445282,2.7299342155456543,0.22233830392360687,0.0,0.0,0.0,1.6939916288189265,70,255,255,255
356,12.161802071999773,24.476388931274414,-1.195776104927063,-15.205535888671875,-0.45928651094436646,2.7756905555725098,0.20629826188087463,0.0,0.0,0.0,1.6968236343221168,70,255,255,255
357,12.193977193999672,24.48726463317871,-1.1082640886306763,-15.20556640625,-0.4671194553375244,2.8291664123535156,0.1898849904537201,0.0,0.0,0.0,1.7024824521643718,70,255,255,255
358,12.231553883999823,24.496244430541992,-0.9967855215072632,-15.2044677734375,-0.48798131942749023,2.868378162384033,0.20497560501098633,0.0,0.0,0.0,1.7081157036601617,70,255,255,255
359,12.26342957099996,24.50023078918457,-0.9061415195465088,-15.202713012695312,-0.5084861516952515,2.8985307216644287,0.20503351092338562,0.0,0.0,0.0,1.7110157529292036,70,255,255,255
360,12.295773349999763,24.50817108154297,-0.8131135702133179,-15.200637817382812,-0.5220521688461304,2.9111111164093018,0.20664829015731812,0.0,0.0,0.0,1.7170566012298303,70,255,255,255
361,12.33315129499988,24.515281677246094,-0.7187345623970032,-15.198486328125,-0.5231991410255432,2.9580657482147217,0.176987424492836,0.0,0.0,0.0,1.7198394714109086,70,255,255,255
362,12.365482079999765,24.519489288330078,-0.6234344244003296,-15.1962890625,-0.5311598181724548,2.9707682132720947,0.1934136152267456,0.0,0.0,0.0,1.725394559128705,70,255,255,255
363,12.397864002999995,24.52121925354004,-0.5275376439094543,-15.193862915039062,-0.5518638491630554,2.99575138092041,0.16405797004699707,0.0,0.0,0.0,1.7299644104012264,70,255,255,255
364,12.434682875999897,24.52532196044922,-0.40724608302116394,-15.19439697265625,-0.6051439642906189,3.012385368347168,0.175859272480011,0.0,0.0,0.0,1.7350232180498864,70,255,255,255
365,12.46667164099972,24.52582550048828,-0.31037598848342896,-15.194915771484375,-0.6382253766059875,3.033297538757324,0.16753965616226196,0.0,0.0,0.0,1.7371862374872489,70,255,255,255
366,12.49909704799984,24.523143768310547,-0.21290241181850433,-15.194915771484375,-0.6575554609298706,3.053128242492676,0.17067444324493408,0.0,0.0,0.0,1.742551841293486,70,255,255,255
367,12.53659870599995,24.518352508544922,-0.11495748907327652,-15.194412231445312,-0.7056010961532593,3.0573809146881104,0.18870402872562408,0.0,0.0,0.0,1.7441840927255954,70,255,255,255
368,12.56874561099994,24.514623641967773,-0.016041070222854614,-15.194229125976562,-0.7146632075309753,3.0724949836730957,0.1949179321527481,0.0,0.0,0.0,1.7485916243296766,70,255,255,255
369,12.601006406999659,24.508426666259766,0.08341076225042343,-15.193191528320312,-0.6964181065559387,3.097569227218628,0.19975504279136658,0.0,0.0,0.0,1.7530460275689432,70,255,255,255
370,12.638226090999979,24.498310089111328,0.20860572159290314,-15.191452026367188,-0.7124975919723511,3.1175379753112793,0.18213094770908356,0.0,0.0,0.0,1.7558595241025574,70,255,255,255
371,12.670041020999633,24.491371154785156,0.30972447991371155,-15.190658569335938,-0.7191102504730225,3.135380983352661,0.16333667933940887,0.0,0.0,0.0,1.7596340223155267,70,255,255,255
372,12.702384157999859,24.485071182250977,0.41155359148979187,-15.18994140625,-0.7363629937171936,3.1473071575164795,0.1682843267917633,0.0,0.0,0.0,1.7637334261814857,70,255,255,255
373,12.739551924999887,24.476282119750977,0.5135459899902344,-15.188552856445312,-0.7480863928794861,3.1582484245300293,0.1821214109659195,0.0,0.0,0.0,1.7672396109146296,70,255,255,255
374,12.772363138999935,24.465778350830078,0.6160068511962891,-15.186614990234375,-0.7528515458106995,3.1752078533172607,0.1719101220369339,0.0,0.0,0.0,1.7693794608505082,70,255,255,255
375,12.804160640999726,24.459569931030273,0.7192238569259644,-15.18408203125,-0.7433111667633057,3.178391933441162,0.18565566837787628,0.0,0.0,0.0,1.7740718175331733,70,255,255,255
376,12.842016730999603,24.451278686523438,0.8481696248054504,-15.1796875,-0.7549076080322266,3.1834027767181396,0.17838282883167267,0.0,0.0,0.0,1.7776772050169225,70,255,255,255
377,12.874085238999669,24.442237854003906,0.9518138766288757,-15.176345825195312,-0.7443749308586121,3.2093286514282227,0.17295047640800476,0.0,0.0,0.0,1.7795701799197507,70,255,255,255
378,12.90606051299983,24.431743621826172,1.0557615756988525,-15.1728515625,-0.7413610816001892,3.215283155441284,0.1583685725927353,0.0,0.0,0.0,1.7828782254677928,70,255,255,255
379,12.943248343999585,24.426525115966797,1.1579078435897827,-15.170394897460938,-0.7554691433906555,3.2133166790008545,0.14255361258983612,0.0,0.0,0.0,1.7866303531276053,70,255,255,255
380,12.975361313999656,24.419111251831055,1.260048747062683,-15.1678466796875,-0.7566423416137695,3.21065616607666,0.1318710446357727,0.0,0.0,0.0,1.7888483668414779,70,255,255,255
381,13.007364714999767,24.409013748168945,1.3619462251663208,-15.164962768554688,-0.7919813394546509,3.20098614692688,0.1451246589422226,0.0,0.0,0.0,1.7924569501185352,70,255,255,255
382,13.045044480999877,24.39438247680664,1.4881129264831543,-15.161514282226562,-0.8031636476516724,3.202070951461792,0.1311655044555664,0.0,0.0,0.0,1.7960329096722392,70,255,255,255
383,13.076660207999794,24.385417938232422,1.5859894752502441,-15.159454345703125,-0.8176528215408325,3.1853044033050537,0.1414080262184143,0.0,0.0,0.0,1.7984421383523794,70,255,255,255
384,13.109324699999888,24.37406349182129,1.6836870908737183,-15.156829833984375,-0.8459287881851196,3.1684815883636475,0.14342001080513,0.0,0.0,0.0,1.801824619252889,70,255,255,255
385,13.163332190999881,24.360157012939453,1.781581997871399,-15.154098510742188,-0.859364926815033,3.1643476486206055,0.1336531639099121,0.0,0.0,0.0,1.8040370403284722,70,255,255,255
386,13.21741232999966,24.347396850585938,1.8797340393066406,-15.151824951171875,-0.8436901569366455,3.160398006439209,0.13915319740772247,0.0,0.0,0.0,1.8040370403284722,70,255,255,255
387,13.25526445999958,24.335140228271484,1.9779458045959473,-15.148956298828125,-0.8566071391105652,3.151918888092041,0.16964706778526306,0.0,0.0,0.0,1.8061328149483102,70,255,255,255
388,13.277730816999792,24.317882537841797,2.1011974811553955,-15.1441650390625,-0.8291056752204895,3.165132999420166,0.18483701348304749,0.0,0.0,0.0,1.8061328149483102,70,255,255,255
389,13.316310614000031,24.3033447265625,2.200437307357788,-15.139328002929688,-0.7897463440895081,3.169020891189575,0.21234087646007538,0.0,0.0,0.0,1.8073159242625778,70,255,255,255
390,13.328783670999655,24.29203987121582,2.300779342651367,-15.134033203125,-0.7803234457969666,3.161607265472412,0.23247365653514862,0.0,0.0,0.0,1.8073159242625778,70,255,255,255
391,13.36751586299988,24.280406951904297,2.4014170169830322,-15.128265380859375,-0.7899361848831177,3.1497864723205566,0.23617906868457794,0.0,0.0,0.0,1.8092082333751336,70,255,255,255
392,13.39455103299997,24.266202926635742,2.501760244369507,-15.122390747070312,-0.8300883769989014,3.1452317237854004,0.21020856499671936,0.0,0.0,0.0,1.817754317313198,70,255,255,255
393,13.42593834399986,24.24966049194336,2.601769208908081,-15.116806030273438,-0.8496748208999634,3.1293699741363525,0.21639253199100494,0.0,0.0,0.0,1.8320243333821695,70,255,255,255
394,13.462022990999685,24.23081398010254,2.7302491664886475,-15.112396240234375,-0.8917909860610962,3.111166477203369,0.17810003459453583,0.0,0.0,0.0,1.83562000032794,70,255,255,255
395,13.493930806999742,24.21360206604004,2.8332741260528564,-15.110336303710938,-0.9065285325050354,3.124260425567627,0.13412503898143768,0.0,0.0,0.0,1.837720834953849,70,255,255,255
396,13.526650019999579,24.194643020629883,2.9364373683929443,-15.109100341796875,-0.90581214427948,3.138103723526001,0.12228303402662277,0.0,0.0,0.0,1.840440987691256,70,255,255,255
397,13.563342041999931,24.175832748413086,3.0404272079467773,-15.107955932617188,-0.9009674191474915,3.1515378952026367,0.12802404165267944,0.0,0.0,0.0,1.8426992151375887,70,255,255,255
398,13.595682694999596,24.15953826904297,3.14591908454895,-15.106353759765625,-0.9005990624427795,3.162384510040283,0.1500832885503769,0.0,0.0,0.0,1.84449205518343,70,255,255,255
399,13.628286186999958,24.141773223876953,3.2512524127960205,-15.103866577148438,-0.9071810245513916,3.1664879322052,0.1642259806394577,0.0,0.0,0.0,1.8476098178715858,70,255,255,255
400,13.665531199999805,24.116552352905273,3.3826770782470703,-15.100051879882812,-0.9501389861106873,3.167903423309326,0.17411690950393677,0.0,0.0,0.0,1.8502536710437618,70,255,255,255
401,13.697662697999931,24.098411560058594,3.4888362884521484,-15.098297119140625,-0.9232240319252014,3.177496910095215,0.19191330671310425,0.0,0.0,0.0,1.8516397132330937,70,255,255,255
402,13.730242516999624,24.0824031829834,3.596334218978882,-15.09844970703125,-0.9232689738273621,3.1984710693359375,0.17500270903110504,0.0,0.0,0.0,1.8546003494169347,70,255,255,255
403,13.767549992999648,24.06467628479004,3.703645944595337,-15.0985107421875,-0.9404812455177307,3.1984658241271973,0.15610986948013306,0.0,0.0,0.0,1.8587424970183895,70,255,255,255
404,13.799674205999963,24.044795989990234,3.8105428218841553,-15.098388671875,-0.9432689547538757,3.1948201656341553,0.1477649211883545,0.0,0.0,0.0,1.8603248141800601,70,255,255,255
405,13.832197404999988,24.02585220336914,3.9162609577178955,-15.102569580078125,-0.9407808184623718,3.1794307231903076,0.14420542120933533,0.0,0.0,0.0,1.86523195480464,70,255,255,255
406,13.869115948999934,24.00178337097168,4.047458171844482,-15.107620239257812,-0.92164146900177,3.170138120651245,0.1725691854953766,0.0,0.0,0.0,1.86772041252721,70,255,255,255
407,13.901527454999723,23.9810733795166,4.1514506340026855,-15.109786987304688,-0.945807933807373,3.1418516635894775,0.1854563057422638,0.0,0.0,0.0,1.8721565731130096,70,255,255,255
408,13.933862723999937,23.958324432373047,4.2545294761657715,-15.11090087890625,-0.9625231623649597,3.125620126724243,0.19661593437194824,0.0,0.0,0.0,1.8770613168926085,70,255,255,255
409,13.971028116999605,23.935911178588867,4.3583879470825195,-15.112945556640625,-0.9631058573722839,3.1124486923217773,0.19526776671409607,0.0,0.0,0.0,1.8786347124646274,70,255,255,255
410,14.003290968999863,23.912105560302734,4.461258411407471,-15.113861083984375,-0.997365415096283,3.0805463790893555,0.220937117934227,0.0,0.0,0.0,1.8830779304273155,70,255,255,255
411,14.035720349999792,23.886383056640625,4.563089847564697,-15.11376953125,-1.0089335441589355,3.062722682952881,0.2216157466173172,0.0,0.0,0.0,1.888298791428307,70,255,255,255
412,14.07375560499986,23.853816986083984,4.689037799835205,-15.113555908203125,-0.9965041279792786,3.061438798904419,0.21620754897594452,0.0,0.0,0.0,1.892105780206575,70,255,255,255
413,14.105029489999652,23.830228805541992,4.788053512573242,-15.115966796875,-0.9842938184738159,3.0555903911590576,0.1935860514640808,0.0,0.0,0.0,1.894973871542536,70,255,255,255
414,14.137529636999716,23.805824279785156,4.8866095542907715,-15.118179321289062,-0.9826971888542175,3.0406763553619385,0.1848367601633072,0.0,0.0,0.0,1.8993296046634152,70,255,255,255
415,14.174538917999598,23.77994728088379,4.9845709800720215,-15.119766235351562,-1.014735460281372,3.0155155658721924,0.1774127036333084,0.0,0.0,0.0,1.9021082137867493,70,255,255,255
416,14.207173133999731,23.75304412841797,5.082827091217041,-15.120849609375,-1.035354733467102,3.000143051147461,0.16839629411697388,0.0,0.0,0.0,1.907343189541518,70,255,255,255
417,14.239318377000018,23.726015090942383,5.181611061096191,-15.121810913085938,-1.02908456325531,2.9892163276672363,0.14572347700595856,0.0,0.0,0.0,1.912520374700632,70,255,255,255
418,14.276640174000022,23.690353393554688,5.303952217102051,-15.122161865234375,-1.0630100965499878,2.964914560317993,0.13996902108192444,0.0,0.0,0.0,1.917899161154265,70,255,255,255
419,14.308862130999842,23.659730911254883,5.4005231857299805,-15.121826171875,-1.100928783416748,2.9384565353393555,0.14030225574970245,0.0,0.0,0.0,1.92028162506545,70,255,255,255
420,14.341194101999918,23.630897521972656,5.495809555053711,-15.121978759765625,-1.113054871559143,2.9235968589782715,0.12438815832138062,0.0,0.0,0.0,1.9257324500265696,70,255,255,255
421,14.378609112999584,23.6015625,5.590092658996582,-15.1220703125,-1.1284784078598022,2.903024673461914,0.12059007585048676,0.0,0.0,0.0,1.9307814039791964,70,255,255,255
422,14.411256306999803,23.570819854736328,5.683864116668701,-15.121902465820312,-1.1451466083526611,2.8882923126220703,0.10896987468004227,0.0,0.0,0.0,1.933590239980903,70,255,255,255
423,14.443065996999849,23.53877830505371,5.7771430015563965,-15.121856689453125,-1.163015365600586,2.8781161308288574,0.09367352724075317,0.0,0.0,0.0,1.9384880595416676,70,255,255,255
424,14.480519590999847,23.501373291015625,5.8940348625183105,-15.125167846679688,-1.1374350786209106,2.879042625427246,0.0871429592370987,0.0,0.0,0.0,1.9440126540649825,70,255,255,255
425,14.512661861999732,23.471837997436523,5.987738609313965,-15.128250122070312,-1.1161901950836182,2.8808751106262207,0.08697732537984848,0.0,0.0,0.0,1.946938535996598,70,255,255,255
426,14.54492982399961,23.441789627075195,6.08106803894043,-15.130615234375,-1.1262482404708862,2.860405683517456,0.09297029674053192,0.0,0.0,0.0,1.9533655426552863,70,255,255,255
427,14.582511697999962,23.410682678222656,6.1745758056640625,-15.132583618164062,-1.1398667097091675,2.8450663089752197,0.09005104005336761,0.0,0.0,0.0,1.9582011774045978,70,255,255,255
428,14.614345326999683,23.37989616394043,6.270322322845459,-15.134552001953125,-1.1325918436050415,2.844425678253174,0.08881156146526337,0.0,0.0,0.0,1.9606190613582806,70,255,255,255
429,14.646660618999704,23.34838104248047,6.365452289581299,-15.13568115234375,-1.1371822357177734,2.838205575942993,0.0913119986653328,0.0,0.0,0.0,1.9654965077367064,70,255,255,255
430,14.684400867000022,23.307443618774414,6.483351707458496,-15.136337280273438,-1.1372654438018799,2.830939531326294,0.09937965869903564,0.0,0.0,0.0,1.967912793793735,70,255,255,255
431,14.716138279999996,23.273317337036133,6.578258991241455,-15.136688232421875,-1.1429164409637451,2.8155953884124756,0.12177491933107376,0.0,0.0,0.0,1.972297289054387,70,255,255,255
432,14.748523725999803,23.238243103027344,6.673814296722412,-15.1370849609375,-1.1413848400115967,2.8162243366241455,0.1379793882369995,0.0,0.0,0.0,1.9770467705424344,70,255,255,255
433,14.786042011999598,23.20236587524414,6.768435955047607,-15.136077880859375,-1.163901686668396,2.793734312057495,0.16480807960033417,0.0,0.0,0.0,1.9817998472979534,70,255,255,255
434,14.818088378999619,23.1654052734375,6.862168312072754,-15.134140014648438,-1.1703753471374512,2.7862472534179688,0.17510704696178436,0.0,0.0,0.0,1.9847776608708254,70,255,255,255
435,14.85009650899974,23.129545211791992,6.954059600830078,-15.13372802734375,-1.1637141704559326,2.7903199195861816,0.16089604794979095,0.0,0.0,0.0,1.9899969239751627,70,255,255,255
436,14.887740876999942,23.084428787231445,7.068201065063477,-15.134002685546875,-1.1939468383789062,2.7719364166259766,0.13329167664051056,0.0,0.0,0.0,1.9951215117027477,70,255,255,255
437,14.919837146999726,23.047056198120117,7.158502578735352,-15.1341552734375,-1.2071294784545898,2.75238037109375,0.13073338568210602,0.0,0.0,0.0,1.9985547258220233,70,255,255,255
438,14.952130072999807,23.00937271118164,7.2483015060424805,-15.1339111328125,-1.2159922122955322,2.737589120864868,0.1357012242078781,0.0,0.0,0.0,2.0034565401244233,70,255,255,255
439,14.989483958999699,22.972858428955078,7.339317321777344,-15.135284423828125,-1.2287169694900513,2.7273826599121094,0.15483836829662323,0.0,0.0,0.0,2.0054710883310136,70,255,255,255
440,15.022106623999662,22.93597984313965,7.430017471313477,-15.135787963867188,-1.2074065208435059,2.7291603088378906,0.1478804498910904,0.0,0.0,0.0,2.0102309561473124,70,255,255,255
441,15.054045952999786,22.898550033569336,7.520039081573486,-15.136306762695312,-1.23684561252594,2.7101876735687256,0.12123885750770569,0.0,0.0,0.0,2.015315862774655,70,255,255,255
442,15.091402465999636,22.850088119506836,7.631056785583496,-15.137802124023438,-1.266119360923767,2.68768572807312,0.12149276584386826,0.0,0.0,0.0,2.01782189736042,70,255,255,255
443,15.123446637999677,22.812042236328125,7.718661308288574,-15.141021728515625,-1.2534759044647217,2.681290626525879,0.11545321345329285,0.0,0.0,0.0,2.0225013377117977,70,255,255,255
444,15.155815191999864,22.773704528808594,7.80582332611084,-15.143203735351562,-1.2545617818832397,2.6725802421569824,0.12652119994163513,0.0,0.0,0.0,2.026609796325463,70,255,255,255
445,15.193221041000015,22.7346248626709,7.892421722412109,-15.144515991210938,-1.2618658542633057,2.6593177318573,0.12895651161670685,0.0,0.0,0.0,2.031092828546448,70,255,255,255
446,15.225585795999905,22.696889877319336,7.979459285736084,-15.1441650390625,-1.2642818689346313,2.651608943939209,0.12621212005615234,0.0,0.0,0.0,2.0330494529993293,70,255,255,255
447,15.257696596999722,22.65115737915039,8.088541984558105,-15.141250610351562,-1.2636535167694092,2.634730577468872,0.15206727385520935,0.0,0.0,0.0,2.037391071366431,70,255,255,255
448,15.294818739999755,22.614116668701172,8.175419807434082,-15.138198852539062,-1.2284201383590698,2.656555414199829,0.15984781086444855,0.0,0.0,0.0,2.0397218699524684,70,255,255,255
449,15.327084360999834,22.577739715576172,8.262345314025879,-15.134674072265625,-1.1926852464675903,2.653144359588623,0.16503755748271942,0.0,0.0,0.0,2.043257083141494,70,255,255,255
450,15.35955101699983,22.54290008544922,8.348884582519531,-15.130081176757812,-1.1863328218460083,2.644346237182617,0.1781260222196579,0.0,0.0,0.0,2.0474140112869987,70,255,255,255
451,15.397593187999973,22.50801658630371,8.435047149658203,-15.125228881835938,-1.1933043003082275,2.630192518234253,0.17672035098075867,0.0,0.0,0.0,2.049539480152991,70,255,255,255
452,15.42854089299999,22.471939086914062,8.52055549621582,-15.120803833007812,-1.2276197671890259,2.606884717941284,0.14995600283145905,0.0,0.0,0.0,2.0535189086118417,70,255,255,255
453,15.461059986999771,22.43437957763672,8.605191230773926,-15.116744995117188,-1.2382240295410156,2.5900232791900635,0.155506893992424,0.0,0.0,0.0,2.057189809858407,70,255,255,255
454,15.498164381999686,22.38591957092285,8.708027839660645,-15.109695434570312,-1.2711049318313599,2.561641216278076,0.1637536734342575,0.0,0.0,0.0,2.0593809256452698,70,255,255,255
455,15.530333839999912,22.345190048217773,8.788915634155273,-15.104171752929688,-1.287880301475525,2.544975996017456,0.1340707540512085,0.0,0.0,0.0,2.0628202650350524,70,255,255,255
456,15.562769492999905,22.304128646850586,8.869574546813965,-15.098983764648438,-1.2864130735397339,2.5396568775177,0.13142508268356323,0.0,0.0,0.0,2.0662697244369777,70,255,255,255
457,15.600108980999721,22.26276397705078,8.950432777404785,-15.094512939453125,-1.289913535118103,2.531965970993042,0.11437283456325531,0.0,0.0,0.0,2.06753219595173,70,255,255,255
458,15.63212570099995,22.222482681274414,9.032788276672363,-15.09075927734375,-1.303783655166626,2.5187034606933594,0.1174406036734581,0.0,0.0,0.0,2.0707560856093252,70,255,255,255
459,15.664603631999853,22.180648803710938,9.114227294921875,-15.086883544921875,-1.3473873138427734,2.4910547733306885,0.1295779049396515,0.0,0.0,0.0,2.074532847509221,70,255,255,255
460,15.701971215999947,22.127168655395508,9.215218544006348,-15.081695556640625,-1.3369407653808594,2.4928293228149414,0.1263248324394226,0.0,0.0,0.0,2.0788262626605922,70,255,255,255
461,15.733705172999635,22.08342170715332,9.29565715789795,-15.08001708984375,-1.3470783233642578,2.499135971069336,0.10434985905885696,0.0,0.0,0.0,2.081035088468704,70,255,255,255
462,15.76631766699984,22.038414001464844,9.37575626373291,-15.0804443359375,-1.349647879600525,2.506009340286255,0.10247530788183212,0.0,0.0,0.0,2.084330484001568,70,255,255,255
463,15.804044756999701,21.993141174316406,9.455866813659668,-15.080337524414062,-1.3637796640396118,2.494812488555908,0.10914329439401627,0.0,0.0,0.0,2.088065034798186,70,255,255,255
464,15.835878864999813,21.947187423706055,9.535656929016113,-15.079910278320312,-1.3692851066589355,2.495926856994629,0.10920689254999161,0.0,0.0,0.0,2.0902299184483115,70,255,255,255
465,15.86860016699984,21.9018497467041,9.615793228149414,-15.082122802734375,-1.3321144580841064,2.516157865524292,0.12442535161972046,0.0,0.0,0.0,2.094667144298547,70,255,255,255
466,15.906767231999765,21.84610939025879,9.716246604919434,-15.084625244140625,-1.3211168050765991,2.509214162826538,0.12290195375680923,0.0,0.0,0.0,2.098719543371266,70,255,255,255
467,15.938325036999686,21.801616668701172,9.796370506286621,-15.0859375,-1.324188470840454,2.496519088745117,0.12920412421226501,0.0,0.0,0.0,2.1006372856722324,70,255,255,255
468,15.970526635999704,21.757213592529297,9.876546859741211,-15.086746215820312,-1.3035436868667603,2.518589973449707,0.11658225208520889,0.0,0.0,0.0,2.1051104641971836,70,255,255,255
469,16.00815869400003,21.71494483947754,9.955537796020508,-15.087081909179688,-1.3010886907577515,2.5192015171051025,0.11094379425048828,0.0,0.0,0.0,2.1080306203324555,70,255,255,255
470,16.040309413999694,21.672969818115234,10.034629821777344,-15.0869140625,-1.264434814453125,2.5291407108306885,0.10507829487323761,0.0,0.0,0.0,2.110249699310764,70,255,255,255
471,16.07287124300001,21.63072967529297,10.113712310791016,-15.086837768554688,-1.285011887550354,2.514878988265991,0.09415651857852936,0.0,0.0,0.0,2.1138638752261105,70,255,255,255
472,16.110262797999894,21.576210021972656,10.212756156921387,-15.08734130859375,-1.3019523620605469,2.506150960922241,0.06705258041620255,0.0,0.0,0.0,2.117831585776165,70,255,255,255
473,16.14225067199959,21.529294967651367,10.293502807617188,-15.088882446289062,-1.3264515399932861,2.498687744140625,0.07457190752029419,0.0,0.0,0.0,2.1195334788707805,70,255,255,255
474,16.175045735999902,21.481420516967773,10.373594284057617,-15.089950561523438,-1.3743610382080078,2.4722542762756348,0.07548852264881134,0.0,0.0,0.0,2.1230738852239317,70,255,255,255
475,16.212373574999674,21.432674407958984,10.45289134979248,-15.090255737304688,-1.395919680595398,2.4524712562561035,0.08970072120428085,0.0,0.0,0.0,2.127610580140882,70,255,255,255
476,16.244213076999586,21.381277084350586,10.53193187713623,-15.08935546875,-1.3984371423721313,2.4371869564056396,0.11824643611907959,0.0,0.0,0.0,2.12996801033782,70,255,255,255
477,16.276934119999623,21.315204620361328,10.630937576293945,-15.086593627929688,-1.4066283702850342,2.4320106506347656,0.11491502076387405,0.0,0.0,0.0,2.1337655448942185,70,255,255,255
478,16.314311413999803,21.262813568115234,10.710074424743652,-15.08453369140625,-1.3854050636291504,2.4444708824157715,0.11452856659889221,0.0,0.0,0.0,2.1356064549977356,70,255,255,255
479,16.34627503999991,21.211227416992188,10.789274215698242,-15.082366943359375,-1.3882631063461304,2.4497506618499756,0.10380329936742783,0.0,0.0,0.0,2.1407159958651616,70,255,255,255
480,16.378138035999655,21.160064697265625,10.870352745056152,-15.082000732421875,-1.3960368633270264,2.4357011318206787,0.12894415855407715,0.0,0.0,0.0,2.145304356107259,70,255,255,255
481,16.416039463999823,21.109018325805664,10.951147079467773,-15.081695556640625,-1.4161256551742554,2.415435791015625,0.1330266147851944,0.0,0.0,0.0,2.14745698921637,70,255,255,255
482,16.447948087999976,21.057287216186523,11.031057357788086,-15.081100463867188,-1.44439697265625,2.3978652954101562,0.1319590061903,0.0,0.0,0.0,2.152016321002586,70,255,255,255
483,16.480277355,21.005828857421875,11.110506057739258,-15.08026123046875,-1.4196388721466064,2.412307024002075,0.12236112356185913,0.0,0.0,0.0,2.1566797823874237,70,255,255,255
484,16.51790512699972,20.941162109375,11.211546897888184,-15.0784912109375,-1.4098947048187256,2.413113832473755,0.13509482145309448,0.0,0.0,0.0,2.158612837864658,70,255,255,255
485,16.549589986999763,20.889551162719727,11.292062759399414,-15.0762939453125,-1.4051604270935059,2.3992557525634766,0.14046502113342285,0.0,0.0,0.0,2.1632816255716754,70,255,255,255
486,16.582112718999724,20.838638305664062,11.37181282043457,-15.07391357421875,-1.408296823501587,2.3877944946289062,0.14002709090709686,0.0,0.0,0.0,2.1673835594406703,70,255,255,255
487,16.620005059999585,20.78820037841797,11.451271057128906,-15.0703125,-1.3952934741973877,2.3756792545318604,0.16384093463420868,0.0,0.0,0.0,2.169412222401038,70,255,255,255
488,16.651911101999758,20.739425659179688,11.532149314880371,-15.065582275390625,-1.4013620615005493,2.3736817836761475,0.14153344929218292,0.0,0.0,0.0,2.1741483880836348,70,255,255,255
489,16.6842299799996,20.690492630004883,11.612236022949219,-15.061752319335938,-1.4070147275924683,2.360058069229126,0.12007183581590652,0.0,0.0,0.0,2.178479486964431,70,255,255,255
490,16.72214278599995,20.62934684753418,11.711366653442383,-15.05792236328125,-1.3817722797393799,2.3710360527038574,0.08199016749858856,0.0,0.0,0.0,2.180497097806275,70,255,255,255
491,16.75382072499997,20.581087112426758,11.791890144348145,-15.056121826171875,-1.4007869958877563,2.3523199558258057,0.07836908847093582,0.0,0.0,0.0,2.1847211376112496,70,255,255,255
492,16.785877237000022,20.532543182373047,11.873208999633789,-15.054489135742188,-1.3880671262741089,2.37088680267334,0.08933904021978378,0.0,0.0,0.0,2.1890948470694864,70,255,255,255
493,16.824922629999946,20.484752655029297,11.954527854919434,-15.052444458007812,-1.3923702239990234,2.360106945037842,0.1127626895904541,0.0,0.0,0.0,2.190718576386108,70,255,255,255
494,16.855225331999918,20.4365291595459,12.0348539352417,-15.050384521484375,-1.4191982746124268,2.340113401412964,0.08365215361118317,0.0,0.0,0.0,2.19522104968305,70,255,255,255
495,16.887939454999923,20.385427474975586,12.114334106445312,-15.050857543945312,-1.436663269996643,2.327181339263916,0.08715280890464783,0.0,0.0,0.0,2.199199279719411,70,255,255,255
496,16.92690655999968,20.32141876220703,12.21322250366211,-15.051406860351562,-1.4180409908294678,2.330500841140747,0.09789571166038513,0.0,0.0,0.0,2.2035342401837874,70,255,255,255
497,16.957847154999854,20.271265029907227,12.292156219482422,-15.051406860351562,-1.4062743186950684,2.3346266746520996,0.08601061999797821,0.0,0.0,0.0,2.2059187014657895,70,255,255,255
498,16.99002679499972,20.221332550048828,12.370165824890137,-15.0513916015625,-1.4170669317245483,2.3035836219787598,0.09582498669624329,0.0,0.0,0.0,2.210792952050907,70,255,255,255
499,17.02856290999989,20.16963768005371,12.445534706115723,-15.051528930664062,-1.4043048620224,2.3019537925720215,0.08464237302541733,0.0,0.0,0.0,2.2163223402641843,70,255,255,255
500,17.05929223899966,20.118234634399414,12.520267486572266,-15.051681518554688,-1.4256904125213623,2.2739391326904297,0.06931781023740768,0.0,0.0,0.0,2.2187500779139007,70,255,255,255
501,17.09185458999991,20.067270278930664,12.594170570373535,-15.051986694335938,-1.4179021120071411,2.25227427482605,0.06345074623823166,0.0,0.0,0.0,2.223191831137989,70,255,255,255
502,17.130040693999945,20.003406524658203,12.68531322479248,-15.052642822265625,-1.4137719869613647,2.2219159603118896,0.04672808572649956,0.0,0.0,0.0,2.2284650232544005,70,255,255,255
503,17.1612664649997,19.95069694519043,12.757702827453613,-15.05419921875,-1.4260817766189575,2.1973133087158203,0.031998347491025925,0.0,0.0,0.0,2.2305769099988333,70,255,255,255
504,17.19383257299978,19.898834228515625,12.829565048217773,-15.055892944335938,-1.4048494100570679,2.194195508956909,0.0357598140835762,0.0,0.0,0.0,2.2346829717675174,70,255,255,255
505,17.2315629779996,19.84718132019043,12.900498390197754,-15.057113647460938,-1.4305310249328613,2.1649742126464844,0.035075843334198,0.0,0.0,0.0,2.2368401322504816,70,255,255,255
506,17.26336487799972,19.793834686279297,12.970614433288574,-15.057235717773438,-1.4508558511734009,2.145214319229126,0.04476510360836983,0.0,0.0,0.0,2.2410995920979544,70,255,255,255
507,17.295856058000027,19.739110946655273,13.039823532104492,-15.056442260742188,-1.4763879776000977,2.1260502338409424,0.0253650713711977,0.0,0.0,0.0,2.244960643046351,70,255,255,255
508,17.33371901999999,19.671064376831055,13.125947952270508,-15.056427001953125,-1.4873290061950684,2.118271827697754,0.01692982204258442,0.0,0.0,0.0,2.2470395065932673,70,255,255,255
509,17.36528718999989,19.616670608520508,13.194172859191895,-15.056060791015625,-1.4942326545715332,2.1062774658203125,0.025792008265852928,0.0,0.0,0.0,2.2513106843495363,70,255,255,255
510,17.397913077999874,19.562118530273438,13.261512756347656,-15.057479858398438,-1.50863778591156,2.090607166290283,0.027219612151384354,0.0,0.0,0.0,2.256075612171906,70,255,255,255
511,17.43593366099958,19.507932662963867,13.328557014465332,-15.059158325195312,-1.4992376565933228,2.08960223197937,0.037655290216207504,0.0,0.0,0.0,2.258258339001335,70,255,255,255
512,17.467557854000006,19.4541015625,13.3951997756958,-15.060455322265625,-1.5069342851638794,2.0734000205993652,0.04701096564531326,0.0,0.0,0.0,2.2627138075050377,70,255,255,255
513,17.499928962000013,19.40053367614746,13.461607933044434,-15.061599731445312,-1.5068458318710327,2.072892427444458,0.02458099275827408,0.0,0.0,0.0,2.267269410865727,70,255,255,255
514,17.53656313900001,19.330209732055664,13.543932914733887,-15.066787719726562,-1.5106322765350342,2.06831693649292,0.016213079914450645,0.0,0.0,0.0,2.2691056604373365,70,255,255,255
515,17.56991029599976,19.27348518371582,13.609435081481934,-15.071197509765625,-1.524893879890442,2.0575368404388428,0.018746614456176758,0.0,0.0,0.0,2.272982690352274,70,255,255,255
516,17.60201204399982,19.217313766479492,13.675007820129395,-15.075531005859375,-1.5171788930892944,2.0690386295318604,-0.012709365226328373,0.0,0.0,0.0,2.276812049683699,70,255,255,255
517,17.63964929199983,19.1618595123291,13.740898132324219,-15.079421997070312,-1.5218913555145264,2.039937734603882,-0.01671198010444641,0.0,0.0,0.0,2.278562545468208,70,255,255,255
518,17.672092163999878,19.10677146911621,13.807112693786621,-15.081695556640625,-1.5176950693130493,2.0200729370117188,-0.014841223135590553,0.0,0.0,0.0,2.2825402428723502,70,255,255,255
519,17.70383015499965,19.052169799804688,13.872733116149902,-15.083465576171875,-1.5151909589767456,2.0099000930786133,-0.003153067547827959,0.0,0.0,0.0,2.286497966568317,70,255,255,255
520,17.74165127199967,18.98552131652832,13.954883575439453,-15.084945678710938,-1.480535626411438,2.026639461517334,0.01322325598448515,0.0,0.0,0.0,2.2885288932156116,70,255,255,255
521,17.77401281099992,18.930883407592773,14.021086692810059,-15.085800170898438,-1.473503828048706,2.019355297088623,0.017708096653223038,0.0,0.0,0.0,2.2924583874040234,70,255,255,255
522,17.80586433299959,18.874164581298828,14.086895942687988,-15.086318969726562,-1.4709856510162354,2.0101256370544434,0.05215606465935707,0.0,0.0,0.0,2.2966880198472874,70,255,255,255
523,17.84358814299958,18.81866455078125,14.152612686157227,-15.086181640625,-1.4652518033981323,2.003592014312744,0.04210944473743439,0.0,0.0,0.0,2.3005634518655707,70,255,255,255
524,17.876761018999787,18.76400375366211,14.218097686767578,-15.086212158203125,-1.47074294090271,2.000828742980957,0.02640608325600624,0.0,0.0,0.0,2.3024321920024793,70,255,255,255
525,17.907856952999737,18.707307815551758,14.285058975219727,-15.085693359375,-1.472706913948059,1.9875191450119019,0.04724385216832161,0.0,0.0,0.0,2.306730267685758,70,255,255,255
526,17.944947085999956,18.6362361907959,14.36838436126709,-15.08447265625,-1.4808710813522339,1.964980125427246,0.04676547646522522,0.0,0.0,0.0,2.311135402444858,70,255,255,255
527,17.977541215999736,18.580541610717773,14.43425178527832,-15.082794189453125,-1.4672588109970093,1.9738043546676636,0.05196242034435272,0.0,0.0,0.0,2.312839026594182,70,255,255,255
528,18.00981497599969,18.526126861572266,14.500226974487305,-15.08099365234375,-1.4520533084869385,1.9733738899230957,0.061366453766822815,0.0,0.0,0.0,2.3164249730019737,70,255,255,255
529,18.047270750999814,18.470844268798828,14.567034721374512,-15.078933715820312,-1.4694117307662964,1.9548628330230713,0.03497062250971794,0.0,0.0,0.0,2.318580002956066,70,255,255,255
530,18.08009713799993,18.41583824157715,14.632922172546387,-15.077117919921875,-1.4650124311447144,1.9496128559112549,0.056819815188646317,0.0,0.0,0.0,2.3220370523670977,70,255,255,255
531,18.11203595400002,18.36173439025879,14.698197364807129,-15.074905395507812,-1.4618256092071533,1.9361690282821655,0.04835514351725578,0.0,0.0,0.0,2.3255708008175238,70,255,255,255
532,18.150647316999766,18.29485321044922,14.779479026794434,-15.072799682617188,-1.4533765316009521,1.9305832386016846,0.06864466518163681,0.0,0.0,0.0,2.330006828245269,70,255,255,255
533,18.181902935999915,18.241539001464844,14.845954895019531,-15.074081420898438,-1.4536749124526978,1.917211890220642,0.07208192348480225,0.0,0.0,0.0,2.331114703258742,70,255,255,255
534,18.213790295999843,18.188190460205078,14.911484718322754,-15.075088500976562,-1.468780517578125,1.912062644958496,0.051266442984342575,0.0,0.0,0.0,2.3353142419816875,70,255,255,255
535,18.251611227000012,18.135351181030273,14.976604461669922,-15.076583862304688,-1.4633792638778687,1.9129226207733154,0.03804913908243179,0.0,0.0,0.0,2.3372788559178392,70,255,255,255
536,18.283186852999734,18.081844329833984,15.041306495666504,-15.078369140625,-1.453148603439331,1.9219409227371216,0.029483983293175697,0.0,0.0,0.0,2.341679463303086,70,255,255,255
537,18.316336502000013,18.027978897094727,15.105744361877441,-15.080581665039062,-1.4404546022415161,1.9170920848846436,0.03279952332377434,0.0,0.0,0.0,2.346014823241626,70,255,255,255
538,18.35275931599972,17.96169090270996,15.185979843139648,-15.0823974609375,-1.4628844261169434,1.9026352167129517,0.04366898536682129,0.0,0.0,0.0,2.3493901136071926,70,255,255,255
539,18.384883129999707,17.908554077148438,15.249410629272461,-15.08349609375,-1.4647533893585205,1.9135971069335938,0.037767715752124786,0.0,0.0,0.0,2.351532360388052,70,255,255,255
540,18.41751528199984,17.854124069213867,15.314295768737793,-15.087020874023438,-1.4677541255950928,1.9134628772735596,0.043902359902858734,0.0,0.0,0.0,2.356195555456781,70,255,255,255
541,18.45488486799968,17.799823760986328,15.379692077636719,-15.091094970703125,-1.4710843563079834,1.9182895421981812,0.03756409510970116,0.0,0.0,0.0,2.3602877687877966,70,255,255,255
542,18.48713361,17.745790481567383,15.44452953338623,-15.09429931640625,-1.486188530921936,1.9138239622116089,0.04565754160284996,0.0,0.0,0.0,2.362722696972456,70,255,255,255
543,18.51935817699996,17.691970825195312,15.509057998657227,-15.096755981445312,-1.4989246129989624,1.9120985269546509,0.06522004306316376,0.0,0.0,0.0,2.3670988032756743,70,255,255,255
544,18.556017207999957,17.62297248840332,15.590530395507812,-15.096038818359375,-1.4992592334747314,1.910187005996704,0.07860933989286423,0.0,0.0,0.0,2.3690692761662238,70,255,255,255
545,18.588513713999873,17.568439483642578,15.655735969543457,-15.094635009765625,-1.4862138032913208,1.9076310396194458,0.08556285500526428,0.0,0.0,0.0,2.373070409387959,70,255,255,255
546,18.621707611999682,17.514291763305664,15.72004508972168,-15.092453002929688,-1.5010879039764404,1.884141206741333,0.10212043672800064,0.0,0.0,0.0,2.3780364058726295,70,255,255,255
547,18.658068365999952,17.459518432617188,15.784554481506348,-15.090591430664062,-1.5038158893585205,1.8896170854568481,0.08832326531410217,0.0,0.0,0.0,2.3805174067441475,70,255,255,255
548,18.690496982999775,17.403076171875,15.852252006530762,-15.089523315429688,-1.487937569618225,1.9148242473602295,0.0922103226184845,0.0,0.0,0.0,2.385296981952513,70,255,255,255
549,18.723712809999597,17.34737777709961,15.919191360473633,-15.087661743164062,-1.5007061958312988,1.902755618095398,0.10695639997720718,0.0,0.0,0.0,2.390249129999515,70,255,255,255
550,18.760274531999585,17.278430938720703,16.002229690551758,-15.085174560546875,-1.4969778060913086,1.9220014810562134,0.09224371612071991,0.0,0.0,0.0,2.394857730265897,70,255,255,255
551,18.79248063399973,17.222000122070312,16.0694637298584,-15.084365844726562,-1.507485032081604,1.9274828433990479,0.07454020529985428,0.0,0.0,0.0,2.3972114320373095,70,255,255,255
552,18.82585645099971,17.164398193359375,16.136869430541992,-15.083816528320312,-1.5023969411849976,1.9100896120071411,0.09038323909044266,0.0,0.0,0.0,2.4016245562796796,70,255,255,255
553,18.862839400999746,17.107980728149414,16.20368194580078,-15.08294677734375,-1.4925323724746704,1.9236899614334106,0.0798114463686943,0.0,0.0,0.0,2.4040863823913488,70,255,255,255
554,18.894917713999803,17.05270767211914,16.270355224609375,-15.081954956054688,-1.485899806022644,1.9238208532333374,0.07885962724685669,0.0,0.0,0.0,2.4082425115885266,70,255,255,255
555,18.926831253999808,16.99695587158203,16.337116241455078,-15.0810546875,-1.4816237688064575,1.9287322759628296,0.05497269332408905,0.0,0.0,0.0,2.4126489779281717,70,255,255,255
556,18.964180056999794,16.927656173706055,16.419742584228516,-15.079986572265625,-1.4919190406799316,1.913802146911621,0.06026817113161087,0.0,0.0,0.0,2.4148652605873355,70,255,255,255
557,18.99686461700003,16.872947692871094,16.48523712158203,-15.078659057617188,-1.4882797002792358,1.918062448501587,0.06580071151256561,0.0,0.0,0.0,2.420301305004405,70,255,255,255
558,19.02916710999989,16.819034576416016,16.550312042236328,-15.076812744140625,-1.4756590127944946,1.9179779291152954,0.07743547111749649,0.0,0.0,0.0,2.424660899708865,70,255,255,255
559,19.067402759999823,16.763479232788086,16.615983963012695,-15.078079223632812,-1.4899375438690186,1.9324111938476562,0.058665815740823746,0.0,0.0,0.0,2.4294194359446184,70,255,255,255
560,19.098895475999598,16.70831298828125,16.68148422241211,-15.079666137695312,-1.5157206058502197,1.915088415145874,0.0485096238553524,0.0,0.0,0.0,2.4315710037892937,70,255,255,255
561,19.132075000999976,16.653181076049805,16.746015548706055,-15.081192016601562,-1.505368709564209,1.9189794063568115,0.03372850641608238,0.0,0.0,0.0,2.435252025048001,70,255,255,255
562,19.18286580999984,16.58413314819336,16.827425003051758,-15.082199096679688,-1.5066754817962646,1.9204753637313843,0.030749689787626266,0.0,0.0,0.0,2.4399554338491902,70,255,255,255
563,19.23053132899986,16.525344848632812,16.89450454711914,-15.080429077148438,-1.524644374847412,1.8949788808822632,0.02523244172334671,0.0,0.0,0.0,2.44166544958513,70,255,255,255
564,19.25637470399988,16.466964721679688,16.960542678833008,-15.079193115234375,-1.5351767539978027,1.889410138130188,0.014684229157865047,0.0,0.0,0.0,2.44166544958513,70,255,255,255
565,19.295434485999976,16.409650802612305,17.026185989379883,-15.077911376953125,-1.530468225479126,1.8981170654296875,0.019577492028474808,0.0,0.0,0.0,2.4438764059221136,70,255,255,255
566,19.314248637999754,16.351125717163086,17.092145919799805,-15.077957153320312,-1.543243408203125,1.8781975507736206,0.033519256860017776,0.0,0.0,0.0,2.4438764059221136,70,255,255,255
567,19.36035066999966,16.290607452392578,17.156944274902344,-15.0789794921875,-1.5687187910079956,1.8350188732147217,0.05081717669963837,0.0,0.0,0.0,2.446235167699597,70,255,255,255
568,19.392329334999886,16.215656280517578,17.235836029052734,-15.078857421875,-1.5802181959152222,1.8157860040664673,0.07241079211235046,0.0,0.0,0.0,2.4485105725349605,70,255,255,255
569,19.43754104899972,16.156700134277344,17.298236846923828,-15.077789306640625,-1.58359956741333,1.8080800771713257,0.10134924203157425,0.0,0.0,0.0,2.4510653429686737,70,255,255,255
570,19.458377024999663,16.097049713134766,17.35984992980957,-15.078018188476562,-1.591335654258728,1.7802295684814453,0.13171467185020447,0.0,0.0,0.0,2.4510653429686737,70,255,255,255
571,19.491766904999622,16.037668228149414,17.42025375366211,-15.077880859375,-1.6103343963623047,1.7341669797897339,0.1326686292886734,0.0,0.0,0.0,2.4534062615668533,70,255,255,255
572,19.513525990999824,15.978565216064453,17.47865867614746,-15.077117919921875,-1.616834282875061,1.6928284168243408,0.1319526880979538,0.0,0.0,0.0,2.456082205830165,70,255,255,255
573,19.54626405399995,15.920052528381348,17.535715103149414,-15.076248168945312,-1.6135960817337036,1.677765130996704,0.10501595586538315,0.0,0.0,0.0,2.46848294913001,70,255,255,255
574,19.581363623000016,15.846049308776855,17.608861923217773,-15.078506469726562,-1.6297224760055542,1.6424227952957153,0.10146956145763397,0.0,0.0,0.0,2.4786098854911454,70,255,255,255
575,19.612339187999623,15.787213325500488,17.666919708251953,-15.080581665039062,-1.634864091873169,1.631150245666504,0.08243843168020248,0.0,0.0,0.0,2.482843246359935,70,255,255,255
576,19.6451279099997,15.728392601013184,17.723562240600586,-15.083267211914062,-1.658526062965393,1.605209469795227,0.01779942587018013,0.0,0.0,0.0,2.4847668476152993,70,255,255,255
577,19.681853884999782,15.668978691101074,17.77950096130371,-15.086380004882812,-1.6632280349731445,1.6039067506790161,0.006814045365899801,0.0,0.0,0.0,2.4859138710967965,70,255,255,255
578,19.714446900999974,15.608234405517578,17.83539581298828,-15.087493896484375,-1.681515097618103,1.58854079246521,0.004738025367259979,0.0,0.0,0.0,2.4887408165939156,70,255,255,255
579,19.755483809999987,15.532946586608887,17.904521942138672,-15.088638305664062,-1.6863701343536377,1.5998866558074951,-0.014993439428508282,0.0,0.0,0.0,2.4917917339387103,70,255,255,255
580,19.78530966399967,15.473262786865234,17.959714889526367,-15.089263916015625,-1.6855179071426392,1.6112722158432007,0.01986655779182911,0.0,0.0,0.0,2.494225330542825,70,255,255,255
581,19.8171702679997,15.412056922912598,18.015514373779297,-15.089813232421875,-1.684256911277771,1.6344914436340332,0.04316170513629913,0.0,0.0,0.0,2.4953806098237012,70,255,255,255
582,19.853028507999625,15.349648475646973,18.072372436523438,-15.09033203125,-1.698890209197998,1.6579612493515015,0.028213895857334137,0.0,0.0,0.0,2.497120985596068,70,255,255,255
583,19.888082971999665,15.287686347961426,18.129304885864258,-15.09063720703125,-1.6992570161819458,1.6735221147537231,0.037285275757312775,0.0,0.0,0.0,2.4982951733206837,70,255,255,255
584,19.92002840799978,15.226141929626465,18.185503005981445,-15.0904541015625,-1.7217754125595093,1.6471635103225708,0.0580269992351532,0.0,0.0,0.0,2.5006496740404227,70,255,255,255
585,19.952243511999768,15.16153335571289,18.243581771850586,-15.089706420898438,-1.7291210889816284,1.655931830406189,0.08420070260763168,0.0,0.0,0.0,2.5033525162307444,70,255,255,255
586,19.991528646000006,15.080564498901367,18.316205978393555,-15.087387084960938,-1.7552993297576904,1.6257996559143066,0.11855687946081161,0.0,0.0,0.0,2.5063211418978555,70,255,255,255
587,20.02600430199982,15.016148567199707,18.372926712036133,-15.084701538085938,-1.7690922021865845,1.6102432012557983,0.1137087419629097,0.0,0.0,0.0,2.5078932058893293,70,255,255,255
588,20.055292319999808,14.951838493347168,18.42828369140625,-15.082183837890625,-1.785748839378357,1.576574444770813,0.12122710794210434,0.0,0.0,0.0,2.5106485123531255,70,255,255,255
589,20.092685916999926,14.884984970092773,18.481521606445312,-15.076416015625,-1.793455719947815,1.56023108959198,0.11776281893253326,0.0,0.0,0.0,2.514039249053014,70,255,255,255
590,20.12746624900001,14.818927764892578,18.53398895263672,-15.07098388671875,-1.7899044752120972,1.5576257705688477,0.12412279099225998,0.0,0.0,0.0,2.516205996915903,70,255,255,255
591,20.159449224999662,14.737080574035645,18.598478317260742,-15.064483642578125,-1.8211668729782104,1.519461750984192,0.1084279790520668,0.0,0.0,0.0,2.51937968598695,70,255,255,255
592,20.196703111999796,14.671537399291992,18.648761749267578,-15.05938720703125,-1.831518530845642,1.504474401473999,0.08804523199796677,0.0,0.0,0.0,2.52147639271317,70,255,255,255
593,20.229796439999973,14.606270790100098,18.69854164123535,-15.0533447265625,-1.822356104850769,1.517512559890747,0.08021212369203568,0.0,0.0,0.0,2.5264455849911482,70,255,255,255
594,20.262517324999862,14.541705131530762,18.747983932495117,-15.048049926757812,-1.8326231241226196,1.4856579303741455,0.0557849295437336,0.0,0.0,0.0,2.5310728273851613,70,255,255,255
595,20.29783224599987,14.477444648742676,18.796648025512695,-15.043731689453125,-1.8382490873336792,1.4756404161453247,0.04107069596648216,0.0,0.0,0.0,2.534561302097056,70,255,255,255
596,20.330199792999792,14.413215637207031,18.845409393310547,-15.038497924804688,-1.8366307020187378,1.477096438407898,0.025152137503027916,0.0,0.0,0.0,2.537157884159883,70,255,255,255
597,20.365060227999948,14.349282264709473,18.894638061523438,-15.032333374023438,-1.8313180208206177,1.4702789783477783,0.03802843391895294,0.0,0.0,0.0,2.5424743526440086,70,255,255,255
598,20.400173298000027,14.27056884765625,18.956098556518555,-15.024917602539062,-1.8159884214401245,1.4929697513580322,0.0461561493575573,0.0,0.0,0.0,2.5451636127127704,70,255,255,255
599,20.432888422999895,14.208388328552246,19.005277633666992,-15.018814086914062,-1.8122470378875732,1.4839047193527222,0.07691002637147903,0.0,0.0,0.0,2.550057171215791,70,255,255,255
600,20.465901813999608,14.145751953125,19.057544708251953,-15.010726928710938,-1.8175947666168213,1.4873405694961548,0.08797275274991989,0.0,0.0,0.0,2.5553291649097116,70,255,255,255
601,20.50281891099985,14.083230972290039,19.1104736328125,-15.003005981445312,-1.8199408054351807,1.4873745441436768,0.06642062962055206,0.0,0.0,0.0,2.561078929703193,70,255,255,255
602,20.534956460999638,14.021196365356445,19.16278076171875,-14.995697021484375,-1.8171467781066895,1.4915145635604858,0.07762419432401657,0.0,0.0,0.0,2.5634222451463535,70,255,255,255
603,20.567531181999584,13.959643363952637,19.21467399597168,-14.988235473632812,-1.808361291885376,1.4969384670257568,0.10291890054941177,0.0,0.0,0.0,2.5691203446146873,70,255,255,255
604,20.605155710999952,13.879403114318848,19.278837203979492,-14.977157592773438,-1.8090871572494507,1.5047439336776733,0.07550680637359619,0.0,0.0,0.0,2.575241087748016,70,255,255,255
605,20.638367834999826,13.815521240234375,19.330522537231445,-14.968536376953125,-1.799316644668579,1.5272024869918823,0.08666341006755829,0.0,0.0,0.0,2.577920227804636,70,255,255,255
606,20.66973410999981,13.752227783203125,19.382062911987305,-14.960281372070312,-1.802217960357666,1.536484956741333,0.08183818310499191,0.0,0.0,0.0,2.5834920934373,70,255,255,255
607,20.707659992999652,13.687986373901367,19.43383026123047,-14.953079223632812,-1.8067307472229004,1.5503820180892944,0.07340305298566818,0.0,0.0,0.0,2.5863656442534952,70,255,255,255
608,20.73894096799995,13.618889808654785,19.484329223632812,-14.947174072265625,-1.8265304565429688,1.5524941682815552,0.0495155043900013,0.0,0.0,0.0,2.592136980651806,70,255,255,255
609,20.77795336600002,13.550660133361816,19.53521156311035,-14.942062377929688,-1.84075129032135,1.5561774969100952,0.04778625816106796,0.0,0.0,0.0,2.597579416655492,70,255,255,255
610,20.80968233099975,13.46571159362793,19.597244262695312,-14.936187744140625,-1.8611385822296143,1.5322016477584839,0.03280401974916458,0.0,0.0,0.0,2.602926511492153,70,255,255,255
611,20.842509330999746,13.394543647766113,19.645347595214844,-14.933853149414062,-1.8781185150146484,1.5188716650009155,0.028594665229320526,0.0,0.0,0.0,2.6058690381805816,70,255,255,255
612,20.878410773999803,13.32079029083252,19.692304611206055,-14.933380126953125,-1.8768168687820435,1.5388838052749634,0.022580644115805626,0.0,0.0,0.0,2.6117125462444335,70,255,255,255
613,20.912801918999776,13.248254776000977,19.73990249633789,-14.933181762695312,-1.8902249336242676,1.5375542640686035,0.004157067742198706,0.0,0.0,0.0,2.616878013494751,70,255,255,255
614,20.945276111999647,13.17672348022461,19.78719711303711,-14.933212280273438,-1.876509428024292,1.5459752082824707,0.014542719349265099,0.0,0.0,0.0,2.6195491640681006,70,255,255,255
615,20.979671402999884,13.101411819458008,19.832542419433594,-14.931793212890625,-1.8924734592437744,1.5391099452972412,0.007143791764974594,0.0,0.0,0.0,2.6248216903942394,70,255,255,255
616,21.013680328999726,13.006741523742676,19.88889503479004,-14.930465698242188,-1.9039196968078613,1.5520015954971313,-0.010951997712254524,0.0,0.0,0.0,2.627591111611813,70,255,255,255
617,21.046116935999635,12.932426452636719,19.934335708618164,-14.9293212890625,-1.909134864807129,1.5409590005874634,0.009242353029549122,0.0,0.0,0.0,2.633542211383704,70,255,255,255
618,21.079942534999645,12.85888385772705,19.97952651977539,-14.9283447265625,-1.9200334548950195,1.5345139503479004,-0.016950344666838646,0.0,0.0,0.0,2.6390000937217124,70,255,255,255
619,21.115772917999948,12.780259132385254,20.023170471191406,-14.926376342773438,-1.939023494720459,1.5267168283462524,-0.03285450488328934,0.0,0.0,0.0,2.6420893605862044,70,255,255,255
620,21.149687693000033,12.702497482299805,20.06673240661621,-14.9256591796875,-1.9491769075393677,1.5198253393173218,-0.05488951876759529,0.0,0.0,0.0,2.6471749330038197,70,255,255,255
621,21.183415396999862,12.626167297363281,20.110389709472656,-14.924453735351562,-1.939961314201355,1.5120303630828857,-0.019630303606390953,0.0,0.0,0.0,2.6520602357074607,70,255,255,255
622,21.21930180199979,12.532159805297852,20.164670944213867,-14.923019409179688,-1.9482049942016602,1.4995251893997192,-0.03782005235552788,0.0,0.0,0.0,2.657171907103759,70,255,255,255
623,21.25186814999961,12.454492568969727,20.204891204833984,-14.921966552734375,-1.9653300046920776,1.4838086366653442,-0.02184910699725151,0.0,0.0,0.0,2.66008167691078,70,255,255,255
624,21.284651627999665,12.378098487854004,20.245779037475586,-14.920791625976562,-1.9595801830291748,1.505798101425171,-0.019365156069397926,0.0,0.0,0.0,2.6656125298626563,70,255,255,255
625,21.322287719999622,12.3031587600708,20.2871036529541,-14.919265747070312,-1.9587947130203247,1.483278512954712,-0.011657994240522385,0.0,0.0,0.0,2.669932709782983,70,255,255,255
626,21.35409637299972,12.225838661193848,20.327932357788086,-14.918411254882812,-1.974146842956543,1.4755580425262451,-0.021868402138352394,0.0,0.0,0.0,2.6726872172984515,70,255,255,255
627,21.386646163000023,12.14632797241211,20.368061065673828,-14.917755126953125,-1.9874353408813477,1.457462191581726,-0.025629615411162376,0.0,0.0,0.0,2.6775288441602156,70,255,255,255
628,21.43435800899988,12.04861831665039,20.418230056762695,-14.917343139648438,-1.9911640882492065,1.4383074045181274,-0.026840662583708763,0.0,0.0,0.0,2.681605611156909,70,255,255,255
629,21.458429155999966,11.972082138061523,20.458574295043945,-14.917022705078125,-1.985268473625183,1.4519168138504028,-0.020472785457968712,0.0,0.0,0.0,2.6842016605875183,70,255,255,255
630,21.49100774999988,11.891708374023438,20.49643898010254,-14.917327880859375,-2.0008881092071533,1.4269013404846191,-0.027347635477781296,0.0,0.0,0.0,2.688938625218442,70,255,255,255
631,21.52839998699983,11.811151504516602,20.533580780029297,-14.91741943359375,-2.0062410831451416,1.4152352809906006,-0.00651708897203207,0.0,0.0,0.0,2.690743715805298,70,255,255,255
632,21.559538219999922,11.731939315795898,20.571121215820312,-14.917098999023438,-2.0109381675720215,1.4210567474365234,-0.007603584788739681,0.0,0.0,0.0,2.6951698895370098,70,255,255,255
633,21.59258588299963,11.654301643371582,20.609512329101562,-14.917282104492188,-1.9995396137237549,1.4350780248641968,-0.027213290333747864,0.0,0.0,0.0,2.699108438473128,70,255,255,255
634,21.627843887999916,11.553529739379883,20.65595817565918,-14.917510986328125,-2.0107533931732178,1.4141403436660767,-0.032261401414871216,0.0,0.0,0.0,2.701211803102072,70,255,255,255
635,21.660114667000016,11.473495483398438,20.69245719909668,-14.917205810546875,-2.0146281719207764,1.3705179691314697,-0.001961536007001996,0.0,0.0,0.0,2.7045948166348,70,255,255,255
636,21.69458483199969,11.39491081237793,20.728586196899414,-14.91595458984375,-2.013286828994751,1.3637957572937012,0.020053979009389877,0.0,0.0,0.0,2.7088084701115234,70,255,255,255
637,21.731800135999947,11.316466331481934,20.764638900756836,-14.91351318359375,-2.01054048538208,1.3669058084487915,0.006557443644851446,0.0,0.0,0.0,2.7130839089255367,70,255,255,255
638,21.763307784999597,11.235673904418945,20.79986572265625,-14.9097900390625,-2.0193657875061035,1.356500506401062,-0.015229972079396248,0.0,0.0,0.0,2.7146879308500913,70,255,255,255
639,21.795587397999952,11.156357765197754,20.83526039123535,-14.90679931640625,-2.0212771892547607,1.3235200643539429,-0.026617716997861862,0.0,0.0,0.0,2.718790796825467,70,255,255,255
640,21.83247191299961,11.058844566345215,20.879064559936523,-14.90411376953125,-2.0183651447296143,1.3127176761627197,-0.0409325547516346,0.0,0.0,0.0,2.72056712527255,70,255,255,255
641,21.86446935999993,10.97921085357666,20.914291381835938,-14.9027099609375,-2.008676052093506,1.309258222579956,-0.01761537417769432,0.0,0.0,0.0,2.7239685146167996,70,255,255,255
642,21.896932625999852,10.898225784301758,20.949312210083008,-14.900711059570312,-1.9908690452575684,1.3051834106445312,-0.01810186170041561,0.0,0.0,0.0,2.7274945399000643,70,255,255,255
643,21.933870327000022,10.8193998336792,20.985214233398438,-14.899185180664062,-1.9848625659942627,1.3147996664047241,-0.027417901903390884,0.0,0.0,0.0,2.7293877811190015,70,255,255,255
644,21.96634823999966,10.741899490356445,21.020832061767578,-14.898025512695312,-1.9950125217437744,1.2868566513061523,-0.03703836724162102,0.0,0.0,0.0,2.7333841206507747,70,255,255,255
645,21.999080469999626,10.660685539245605,21.0548152923584,-14.897308349609375,-2.006737470626831,1.271450161933899,-0.05540260672569275,0.0,0.0,0.0,2.736784178414479,70,255,255,255
646,22.037230044999887,10.559514045715332,21.097097396850586,-14.896331787109375,-2.0135364532470703,1.2857136726379395,-0.048142146319150925,0.0,0.0,0.0,2.73856636581596,70,255,255,255
647,22.069790998999906,10.480295181274414,21.132030487060547,-14.8958740234375,-2.0140111446380615,1.2954504489898682,-0.06504745036363602,0.0,0.0,0.0,2.741867087671004,70,255,255,255
648,22.108647094999924,10.402700424194336,21.167726516723633,-14.89569091796875,-2.009542226791382,1.2899603843688965,-0.0554472878575325,0.0,0.0,0.0,2.7433861547567853,70,255,255,255
649,22.149272440999994,10.31902027130127,21.2022705078125,-14.896194458007812,-2.0079095363616943,1.2694543600082397,-0.029247770085930824,0.0,0.0,0.0,2.747308192094145,70,255,255,255
