idx,t,px,py,pz,vx,vy,vz,ax,ay,az,yaw,mode,ledr,ledg,ledb
0,0.01203648399996382,-0.26828616857528687,-0.08586109429597855,-14.948501586914062,0.09440188109874725,0.059881724417209625,-0.14035388827323914,0.0,0.0,0.0,0.0023084124284211715,70,255,255,255
1,0.04733302799968442,-0.2714095413684845,-0.08477478474378586,-14.948989868164062,0.08709461987018585,0.056715771555900574,-0.11376052349805832,0.0,0.0,0.0,0.0023084124284211715,70,255,255,255
2,0.08046505499987688,-0.27451470494270325,-0.08273132890462875,-14.9498291015625,0.08869431167840958,0.09448888152837753,-0.1286945790052414,0.0,0.0,0.0,0.003567208572809465,70,255,255,255
3,0.10733429099991554,-0.27725929021835327,-0.08258585631847382,-14.949295043945312,0.09074006229639053,0.059599921107292175,-0.1587396115064621,0.0,0.0,0.0,0.0035883890258540012,70,255,255,255
4,0.13976306499989732,-0.2798055410385132,-0.08339398354291916,-14.950851440429688,0.07772599160671234,0.0616365484893322,-0.27317294478416443,0.0,0.0,0.0,0.005101071807100115,70,255,255,255
5,0.17848912999988897,-0.2828439176082611,-0.08389951288700104,-14.956680297851562,0.03814743831753731,0.054306767880916595,-0.37029096484184265,0.0,0.0,0.0,0.00533652281534159,70,255,255,255
6,0.20950982799968187,-0.287016361951828,-0.08407586067914963,-14.965896606445312,-0.023055339232087135,0.07963495701551437,-0.4524819254875183,0.0,0.0,0.0,0.0050341000676170766,70,255,255,255
7,0.24381928599996172,-0.2952415645122528,-0.08726333826780319,-14.975677490234375,-0.10951998084783554,0.0495232455432415,-0.5072681307792664,0.0,0.0,0.0,0.0042528201499503,70,255,255,255
8,0.2791370179998012,-0.30993059277534485,-0.09253238141536713,-14.989898681640625,-0.24880719184875488,0.043335143476724625,-0.5493392944335938,0.0,0.0,0.0,0.002392719942199269,70,255,255,255
9,0.31542701899979875,-0.3252064883708954,-0.09670170396566391,-15.002227783203125,-0.37612128257751465,0.019859464839100838,-0.5533460378646851,0.0,0.0,0.0,0.0005074319586731009,70,255,255,255
10,0.3439273049998519,-0.3448531925678253,-0.10077400505542755,-15.015029907226562,-0.5262397527694702,0.03765079751610756,-0.5724288821220398,0.0,0.0,0.0,-0.0004557679338971897,70,255,255,255
11,0.38157249899995804,-0.36961790919303894,-0.10642974823713303,-15.025894165039062,-0.6642976403236389,0.008594262413680553,-0.5411586761474609,0.0,0.0,0.0,-0.003038577598286866,70,255,255,255
12,0.4142366219998621,-0.3981136083602905,-0.11294523626565933,-15.036209106445312,-0.8003316521644592,-0.049875833094120026,-0.5003846287727356,0.0,0.0,0.0,-0.0032917563128314832,70,255,255,255
13,0.44667957199999364,-0.43035581707954407,-0.12048999965190887,-15.04541015625,-0.9291929602622986,-0.09742956608533859,-0.4287562668323517,0.0,0.0,0.0,-0.003702244624015718,70,255,255,255
14,0.4833370929995908,-0.4753228724002838,-0.1331261545419693,-15.051834106445312,-1.0638638734817505,-0.16696055233478546,-0.3099844455718994,0.0,0.0,0.0,-0.0005812005130802856,70,255,255,255
15,0.5167208089997075,-0.5151246786117554,-0.1454007923603058,-15.05279541015625,-1.183170199394226,-0.18893150985240936,-0.25088968873023987,0.0,0.0,0.0,0.002659984542271208,70,255,255,255
16,0.5494565139997576,-0.5578542947769165,-0.15883150696754456,-15.052597045898438,-1.2872816324234009,-0.2589193284511566,-0.20263783633708954,0.0,0.0,0.0,0.011771208428555762,70,255,255,255
17,0.5853783229999863,-0.6035723686218262,-0.1739034205675125,-15.051895141601562,-1.392130732536316,-0.32201871275901794,-0.1673976480960846,0.0,0.0,0.0,0.02328432533856382,70,255,255,255
18,0.6202226759996847,-0.654579222202301,-0.19141900539398193,-15.04864501953125,-1.4913051128387451,-0.39994698762893677,-0.1665012538433075,0.0,0.0,0.0,0.042628603712896285,70,255,255,255
19,0.6579336109998621,-0.7086068987846375,-0.21129794418811798,-15.044845581054688,-1.5678400993347168,-0.47764572501182556,-0.13170014321804047,0.0,0.0,0.0,0.05864699335988329,70,255,255,255
20,0.6876537469997857,-0.7781646251678467,-0.2391548454761505,-15.03973388671875,-1.6349650621414185,-0.5860636234283447,-0.09712608903646469,0.0,0.0,0.0,0.08666519572698224,70,255,255,255
21,0.7200256559999616,-0.8346115946769714,-0.2651594281196594,-15.035842895507812,-1.6510655879974365,-0.7144572734832764,-0.07536114752292633,0.0,0.0,0.0,0.10420516581802922,70,255,255,255
22,0.7541308039999421,-0.8936182260513306,-0.29655230045318604,-15.029296875,-1.6575298309326172,-0.8186475038528442,-0.05501110106706619,0.0,0.0,0.0,0.14612834809243394,70,255,255,255
23,0.7906054109998877,-0.951748788356781,-0.33155104517936707,-15.023162841796875,-1.6352506875991821,-0.9715579152107239,-0.044456034898757935,0.0,0.0,0.0,0.19657189815562687,70,255,255,255
24,0.8236128059998009,-1.0081795454025269,-0.37071487307548523,-15.017791748046875,-1.5865488052368164,-1.10581636428833,-0.04257951304316521,0.0,0.0,0.0,0.25439044035703534,70,255,255,255
25,0.8555492169998615,-1.0622382164001465,-0.41318458318710327,-15.012725830078125,-1.531093716621399,-1.1992111206054688,-0.05119568482041359,0.0,0.0,0.0,0.2859402440009316,70,255,255,255
26,0.8950020949996542,-1.1260828971862793,-0.4737761318683624,-15.005462646484375,-1.3969883918762207,-1.420291781425476,-0.06233863905072212,0.0,0.0,0.0,0.3529484729520924,70,255,255,255
27,0.929504378999809,-1.1718765497207642,-0.528027355670929,-15.000228881835938,-1.2481322288513184,-1.5826780796051025,-0.05867795646190643,0.0,0.0,0.0,0.3888797758004143,70,255,255,255
28,0.9605697359997976,-1.2124249935150146,-0.5862194299697876,-14.995437622070312,-1.0855463743209839,-1.7206002473831177,-0.048455990850925446,0.0,0.0,0.0,0.4626184453269642,70,255,255,255
29,0.995513734999804,-1.247086763381958,-0.6482800245285034,-14.989822387695312,-0.907033383846283,-1.8560138940811157,-0.07340732961893082,0.0,0.0,0.0,0.5384767247651083,70,255,255,255
30,1.0296236849999332,-1.2819974422454834,-0.7306893467903137,-14.983001708984375,-0.6508556008338928,-2.028378486633301,-0.07949874550104141,0.0,0.0,0.0,0.6139026400002779,70,255,255,255
31,1.0617456519998996,-1.2974966764450073,-0.7829096913337708,-14.97967529296875,-0.48375099897384644,-2.108806848526001,-0.09842223674058914,0.0,0.0,0.0,0.6524119493628238,70,255,255,255
32,1.0980879889998505,-1.3139475584030151,-0.8732337355613708,-14.976486206054688,-0.2024172842502594,-2.2261016368865967,-0.11852540075778961,0.0,0.0,0.0,0.7294947502701862,70,255,255,255
33,1.1325574349998533,-1.3212660551071167,-0.9485742449760437,-14.972457885742188,0.03504389151930809,-2.301837921142578,-0.1377875655889511,0.0,0.0,0.0,0.7684889546882082,70,255,255,255
34,1.1628318690000015,-1.3208460807800293,-1.026307225227356,-14.96923828125,0.29918062686920166,-2.376725196838379,-0.1513318568468094,0.0,0.0,0.0,0.8516369718201716,70,255,255,255
35,1.2004748889999064,-1.3124339580535889,-1.1053533554077148,-14.967498779296875,0.5155462026596069,-2.4141106605529785,-0.1797723025083542,0.0,0.0,0.0,0.9172539321283615,70,255,255,255
36,1.233619095999984,-1.2969545125961304,-1.1848644018173218,-14.96636962890625,0.7340472936630249,-2.44159197807312,-0.14519256353378296,0.0,0.0,0.0,0.9529535399618464,70,255,255,255
37,1.2653068109998458,-1.278398871421814,-1.2654807567596436,-14.965164184570312,0.9795113801956177,-2.4647884368896484,-0.15235956013202667,0.0,0.0,0.0,1.0228924112450712,70,255,255,255
38,1.3027800479999314,-1.244646430015564,-1.3672990798950195,-14.96453857421875,1.2904069423675537,-2.4931554794311523,-0.13746821880340576,0.0,0.0,0.0,1.0908848446665846,70,255,255,255
39,1.33527918999971,-1.2082682847976685,-1.4489014148712158,-14.964141845703125,1.5200845003128052,-2.4932572841644287,-0.12343400716781616,0.0,0.0,0.0,1.123866230554453,70,255,255,255
40,1.367399820999708,-1.1647735834121704,-1.531036376953125,-14.964202880859375,1.7505149841308594,-2.4920012950897217,-0.1108982115983963,0.0,0.0,0.0,1.1885613376513118,70,255,255,255
41,1.404555708999851,-1.1158215999603271,-1.6153497695922852,-14.964691162109375,1.9864742755889893,-2.506793737411499,-0.1247238889336586,0.0,0.0,0.0,1.2505165846186972,70,255,255,255
42,1.4373980339996706,-1.0585920810699463,-1.6994277238845825,-14.966384887695312,2.2300562858581543,-2.503082513809204,-0.14070703089237213,0.0,0.0,0.0,1.28054252748685,70,255,255,255
43,1.4696891839998898,-0.9926796555519104,-1.7835321426391602,-14.968353271484375,2.4735100269317627,-2.5028269290924072,-0.14720770716667175,0.0,0.0,0.0,1.3374344394317224,70,255,255,255
44,1.5081504039999345,-0.9004485011100769,-1.889371395111084,-14.972946166992188,2.720993757247925,-2.4899160861968994,-0.16145652532577515,0.0,0.0,0.0,1.3918376273379154,70,255,255,255
45,1.540014933999828,-0.820000171661377,-1.9749269485473633,-14.97833251953125,2.936570167541504,-2.4771528244018555,-0.18385003507137299,0.0,0.0,0.0,1.4186025294512663,70,255,255,255
46,1.5726822889996583,-0.7321072220802307,-2.0600168704986572,-14.984832763671875,3.135485887527466,-2.466303825378418,-0.19831375777721405,0.0,0.0,0.0,1.4706834408869105,70,255,255,255
47,1.61068063599987,-0.6370428204536438,-2.144730567932129,-14.991668701171875,3.348820924758911,-2.458920955657959,-0.2014937549829483,0.0,0.0,0.0,1.5208030673377657,70,255,255,255
48,1.6421181859996068,-0.5369980931282043,-2.2295987606048584,-14.997970581054688,3.535588502883911,-2.4349470138549805,-0.1689821481704712,0.0,0.0,0.0,1.5451323754761845,70,255,255,255
49,1.6746398799996314,-0.431226521730423,-2.313997507095337,-15.003341674804688,3.7046518325805664,-2.41823148727417,-0.14226774871349335,0.0,0.0,0.0,1.5929034933197534,70,255,255,255
50,1.7114810599996417,-0.28993698954582214,-2.4185705184936523,-15.009353637695312,3.926790237426758,-2.3960719108581543,-0.12753207981586456,0.0,0.0,0.0,1.6355309818339432,70,255,255,255
51,1.7455706480000117,-0.16944244503974915,-2.501586437225342,-15.013778686523438,4.104154109954834,-2.387800455093384,-0.1480875462293625,0.0,0.0,0.0,1.6762111669590671,70,255,255,255
52,1.7804682419996425,-0.048447851091623306,-2.585296869277954,-15.01898193359375,4.279002666473389,-2.3788821697235107,-0.1545097976922989,0.0,0.0,0.0,1.700070959797305,70,255,255,255
53,1.814031834999696,0.07894105464220047,-2.6685895919799805,-15.024398803710938,4.426539421081543,-2.3664774894714355,-0.1494867354631424,0.0,0.0,0.0,1.7320941403249628,70,255,255,255
54,1.8461432949998198,0.21172387897968292,-2.7511849403381348,-15.0296630859375,4.5516228675842285,-2.3476951122283936,-0.15293338894844055,0.0,0.0,0.0,1.7486856339161565,70,255,255,255
55,1.8807469029998174,0.38476064801216125,-2.8531620502471924,-15.036117553710938,4.746710300445557,-2.300328016281128,-0.12525145709514618,0.0,0.0,0.0,1.7811905802850097,70,255,255,255
56,1.9159830509997846,0.526738166809082,-2.935194730758667,-15.042022705078125,4.885177135467529,-2.276879072189331,-0.11401074379682541,0.0,0.0,0.0,1.8098512536203333,70,255,255,255
57,1.9487159929999507,0.6749948263168335,-3.0156848430633545,-15.047500610351562,5.075989723205566,-2.2298219203948975,-0.11186078190803528,0.0,0.0,0.0,1.8254182291401735,70,255,255,255
58,1.980736597000032,0.8295891880989075,-3.094337224960327,-15.052932739257812,5.216965675354004,-2.2018489837646484,-0.12302929908037186,0.0,0.0,0.0,1.849151122352469,70,255,255,255
59,2.0185488799997984,0.9882810115814209,-3.173572540283203,-15.058349609375,5.35699462890625,-2.166189432144165,-0.12281672656536102,0.0,0.0,0.0,1.8651351488990158,70,255,255,255
60,2.05132631799961,1.1502069234848022,-3.252978801727295,-15.06396484375,5.461191177368164,-2.134273052215576,-0.1248069554567337,0.0,0.0,0.0,1.8720757461739257,70,255,255,255
61,2.0844859519997954,1.3166704177856445,-3.330282211303711,-15.069305419921875,5.58119535446167,-2.0768113136291504,-0.10014067590236664,0.0,0.0,0.0,1.8847482650630132,70,255,255,255
62,2.1204189359996235,1.5310921669006348,-3.4235146045684814,-15.07470703125,5.715725898742676,-2.008239984512329,-0.08585512638092041,0.0,0.0,0.0,1.8935681219611378,70,255,255,255
63,2.1534685550000177,1.7037898302078247,-3.4934990406036377,-15.079940795898438,5.816543102264404,-1.9663312435150146,-0.0911654382944107,0.0,0.0,0.0,1.8942656038506294,70,255,255,255
64,2.1863818299998456,1.879434585571289,-3.5609164237976074,-15.085647583007812,5.914974689483643,-1.9153281450271606,-0.07572231441736221,0.0,0.0,0.0,1.8926420076920627,70,255,255,255
65,2.2233787649997794,2.0592117309570312,-3.6264889240264893,-15.091522216796875,6.011228561401367,-1.859627604484558,-0.09476879239082336,0.0,0.0,0.0,1.8846754276071995,70,255,255,255
66,2.2567086569997628,2.242659330368042,-3.690153121948242,-15.097640991210938,6.090619087219238,-1.81913423538208,-0.11207631230354309,0.0,0.0,0.0,1.8743416967874196,70,255,255,255
67,2.288103241999579,2.427478790283203,-3.7526638507843018,-15.101028442382812,6.171655178070068,-1.769412875175476,-0.11776270717382431,0.0,0.0,0.0,1.867434788500299,70,255,255,255
68,2.330117250999592,2.6631577014923096,-3.8280980587005615,-15.104400634765625,6.304501533508301,-1.6877015829086304,-0.10980159789323807,0.0,0.0,0.0,1.849903332202362,70,255,255,255
69,2.3577574079999977,2.8556227684020996,-3.8860507011413574,-15.107437133789062,6.3391265869140625,-1.6430405378341675,-0.10506889969110489,0.0,0.0,0.0,1.8401190115154653,70,255,255,255
70,2.391031331999784,3.0511374473571777,-3.941896915435791,-15.1104736328125,6.448428630828857,-1.581140160560608,-0.0923328846693039,0.0,0.0,0.0,1.817012626949611,70,255,255,255
71,2.4293243039996923,3.249495506286621,-3.9952075481414795,-15.112075805664062,6.527993679046631,-1.5131736993789673,-0.061888642609119415,0.0,0.0,0.0,1.7924131411186035,70,255,255,255
72,2.4626595949998773,3.4515950679779053,-4.045976638793945,-15.113571166992188,6.611893177032471,-1.4484034776687622,-0.06290694326162338,0.0,0.0,0.0,1.7656381189931103,70,255,255,255
73,2.4931971799996973,3.6572587490081787,-4.094701290130615,-15.114822387695312,6.692214012145996,-1.4015041589736938,-0.03535982593894005,0.0,0.0,0.0,1.7522790371750003,70,255,255,255
74,2.5327564019999045,3.917670488357544,-4.151199817657471,-15.114395141601562,6.755199909210205,-1.3415135145187378,-0.008466020226478577,0.0,0.0,0.0,1.723946864760138,70,255,255,255
75,2.5634627449999243,4.128885746002197,-4.192318439483643,-15.112457275390625,6.8226213455200195,-1.2821274995803833,0.01736310124397278,0.0,0.0,0.0,1.7071508403972262,70,255,255,255
76,2.597419436999644,4.342841625213623,-4.231566429138184,-15.11041259765625,6.912722110748291,-1.2215964794158936,0.024935726076364517,0.0,0.0,0.0,1.6796766053275327,70,255,255,255
77,2.632943287999751,4.560080051422119,-4.268876075744629,-15.1083984375,6.9760637283325195,-1.1610554456710815,0.05079878866672516,0.0,0.0,0.0,1.6499266991063666,70,255,255,255
78,2.665448109999943,4.777830600738525,-4.303995132446289,-15.108306884765625,7.0453901290893555,-1.1018013954162598,0.05920468643307686,0.0,0.0,0.0,1.6202949040795454,70,255,255,255
79,2.697272593999969,4.997537612915039,-4.3371429443359375,-15.109390258789062,7.085289478302002,-1.0416804552078247,0.052982181310653687,0.0,0.0,0.0,1.6050557636898939,70,255,255,255
80,2.734529236999606,5.275670528411865,-4.3758225440979,-15.109756469726562,7.181370258331299,-0.9729657173156738,0.07948381453752518,0.0,0.0,0.0,1.5707217582843744,70,255,255,255
81,2.7675316219997512,5.501587867736816,-4.404815196990967,-15.10955810546875,7.228822231292725,-0.9176533222198486,0.09206505864858627,0.0,0.0,0.0,1.5433279506796014,70,255,255,255
82,2.799962047000008,5.726796627044678,-4.432014465332031,-15.11041259765625,7.296239376068115,-0.8773621916770935,0.12363327294588089,0.0,0.0,0.0,1.5290230472003496,70,255,255,255
83,2.8374498559996937,5.954807758331299,-4.457677364349365,-15.110549926757812,7.347577095031738,-0.8328624367713928,0.13027581572532654,0.0,0.0,0.0,1.5010133835934958,70,255,255,255
84,2.8698331699997652,6.185330867767334,-4.481784343719482,-15.110870361328125,7.410678863525391,-0.7763918042182922,0.11862757802009583,0.0,0.0,0.0,1.4874646847057722,70,255,255,255
85,2.9022687159999805,6.4182963371276855,-4.504080295562744,-15.110580444335938,7.468372344970703,-0.7185267806053162,0.11795436590909958,0.0,0.0,0.0,1.4618033965481503,70,255,255,255
86,2.9397736759997315,6.711402893066406,-4.528443813323975,-15.1083984375,7.526424884796143,-0.6512603759765625,0.09386567026376724,0.0,0.0,0.0,1.4376288180690648,70,255,255,255
87,2.972641965999628,6.94784688949585,-4.545825004577637,-15.107666015625,7.5728631019592285,-0.6015996336936951,0.050385523587465286,0.0,0.0,0.0,1.4146862179102502,70,255,255,255
88,3.0048189029998866,7.18685245513916,-4.562009811401367,-15.107345581054688,7.631296157836914,-0.5658876895904541,0.06643012166023254,0.0,0.0,0.0,1.4040891004586615,70,255,255,255
89,3.044686270999591,7.426130771636963,-4.577606201171875,-15.106414794921875,7.666407585144043,-0.5180371999740601,0.08120349049568176,0.0,0.0,0.0,1.3860155577208386,70,255,255,255
90,3.078553757999998,7.665605545043945,-4.592721939086914,-15.105026245117188,7.717523097991943,-0.4895786941051483,0.09468269348144531,0.0,0.0,0.0,1.3780905229489808,70,255,255,255
91,3.110459272999833,7.907750129699707,-4.606874465942383,-15.1033935546875,7.767531871795654,-0.4617433547973633,0.09567074477672577,0.0,0.0,0.0,1.3644014754718101,70,255,255,255
92,3.1475908999996136,8.214102745056152,-4.623457908630371,-15.100982666015625,7.857983112335205,-0.4325953722000122,0.08229448646306992,0.0,0.0,0.0,1.3531448261762633,70,255,255,255
93,3.1811101719999897,8.460835456848145,-4.637833595275879,-15.0999755859375,7.899449825286865,-0.4179072380065918,0.08580099791288376,0.0,0.0,0.0,1.3449655926783572,70,255,255,255
94,3.211363305999839,8.70887279510498,-4.651987075805664,-15.098541259765625,7.930809497833252,-0.3898938298225403,0.08251532912254333,0.0,0.0,0.0,1.3430720851433111,70,255,255,255
95,3.2496322329998293,8.95828628540039,-4.665009498596191,-15.096847534179688,7.950669288635254,-0.36047130823135376,0.0948759987950325,0.0,0.0,0.0,1.3410616648364102,70,255,255,255
96,3.292441962999874,9.2089204788208,-4.677093029022217,-15.094635009765625,7.957396507263184,-0.3381930887699127,0.10693337768316269,0.0,0.0,0.0,1.341740371440217,70,255,255,255
97,3.321538120999776,9.458168983459473,-4.690104007720947,-15.091812133789062,7.981113910675049,-0.31861457228660583,0.1322537213563919,0.0,0.0,0.0,1.3428169543108814,70,255,255,255
98,3.3588379429997985,9.770853042602539,-4.705638885498047,-15.087677001953125,8.008556365966797,-0.29111891984939575,0.13264833390712738,0.0,0.0,0.0,1.3442766329043538,70,255,255,255
99,3.391720494999845,10.0232515335083,-4.717279434204102,-15.083480834960938,8.070603370666504,-0.28396329283714294,0.1604892462491989,0.0,0.0,0.0,1.3500194734790008,70,255,255,255
100,3.4195762689996627,10.27652645111084,-4.728147029876709,-15.07843017578125,8.052305221557617,-0.25893810391426086,0.15003779530525208,0.0,0.0,0.0,1.3571917657687476,70,255,255,255
101,3.454291297999589,10.529648780822754,-4.738844871520996,-15.069931030273438,8.042864799499512,-0.24958597123622894,0.14611893892288208,0.0,0.0,0.0,1.366737999854191,70,255,255,255
102,3.4874080029999277,10.783849716186523,-4.74901819229126,-15.06195068359375,8.076353073120117,-0.24218793213367462,0.15351606905460358,0.0,0.0,0.0,1.3710710961058046,70,255,255,255
103,3.520364065999729,11.03897762298584,-4.758444309234619,-15.053939819335938,8.077675819396973,-0.2290087193250656,0.1682320237159729,0.0,0.0,0.0,1.3827009874281262,70,255,255,255
104,3.5592248629995993,11.357085227966309,-4.7690839767456055,-15.043838500976562,8.05650806427002,-0.2076675295829773,0.19723919034004211,0.0,0.0,0.0,1.393507695657504,70,255,255,255
105,3.5943586449998293,11.609837532043457,-4.7766265869140625,-15.036239624023438,8.04129695892334,-0.19523979723453522,0.19009818136692047,0.0,0.0,0.0,1.3995972798060794,70,255,255,255
106,3.624601271999836,11.862930297851562,-4.783661365509033,-15.0284423828125,8.01359748840332,-0.18572880327701569,0.21566635370254517,0.0,0.0,0.0,1.4129445105573384,70,255,255,255
107,3.656640199999856,12.115520477294922,-4.790191650390625,-15.02020263671875,7.9958953857421875,-0.18070729076862335,0.23716239631175995,0.0,0.0,0.0,1.4280192007496775,70,255,255,255
108,3.6911257819997445,12.367415428161621,-4.796183109283447,-15.010848999023438,7.954867839813232,-0.16171665489673615,0.23186253011226654,0.0,0.0,0.0,1.4360370466855246,70,255,255,255
109,3.7220535909996215,12.618148803710938,-4.801421642303467,-15.002212524414062,7.907166481018066,-0.14734745025634766,0.18426695466041565,0.0,0.0,0.0,1.4529965891393672,70,255,255,255
110,3.7608900999998696,12.929484367370605,-4.807177543640137,-14.993515014648438,7.827489376068115,-0.1290198415517807,0.1601468175649643,0.0,0.0,0.0,1.4695148458005836,70,255,255,255
111,3.7940021529998376,13.177145004272461,-4.811092376708984,-14.987152099609375,7.795722007751465,-0.11606735736131668,0.16287685930728912,0.0,0.0,0.0,1.4859056702036397,70,255,255,255
112,3.8263335130000087,13.422186851501465,-4.816122055053711,-14.980484008789062,7.702728271484375,-0.10347183793783188,0.13806939125061035,0.0,0.0,0.0,1.4955937176171301,70,255,255,255
113,3.862447224999869,13.664875984191895,-4.820929050445557,-14.973922729492188,7.631656646728516,-0.11447707563638687,0.16118165850639343,0.0,0.0,0.0,1.5101813156460935,70,255,255,255
114,3.8952161909996903,13.90544605255127,-4.825689315795898,-14.967376708984375,7.543464183807373,-0.11173907667398453,0.15067800879478455,0.0,0.0,0.0,1.5281877467244462,70,255,255,255
115,3.9300072859996362,14.144049644470215,-4.83005952835083,-14.96173095703125,7.4899210929870605,-0.10867711156606674,0.13059435784816742,0.0,0.0,0.0,1.534802239923876,70,255,255,255
116,3.963773303999915,14.437300682067871,-4.839049339294434,-14.956039428710938,7.385467529296875,-0.10645639151334763,0.08674279600381851,0.0,0.0,0.0,1.550865894987016,70,255,255,255
117,3.996837447999951,14.669214248657227,-4.845806121826172,-14.951980590820312,7.274932384490967,-0.11144508421421051,0.09345922619104385,0.0,0.0,0.0,1.5584500451393437,70,255,255,255
118,4.031116961999942,14.897419929504395,-4.852272987365723,-14.94805908203125,7.1372551918029785,-0.10797180235385895,0.08103754371404648,0.0,0.0,0.0,1.5764619356979312,70,255,255,255
119,4.06554628799995,15.119528770446777,-4.859327793121338,-14.944595336914062,6.992853164672852,-0.11631008982658386,0.07625550776720047,0.0,0.0,0.0,1.5902915980806582,70,255,255,255
120,4.098789819999638,15.336341857910156,-4.867232322692871,-14.941574096679688,6.906308650970459,-0.12569791078567505,0.07657462358474731,0.0,0.0,0.0,1.6042135389951564,70,255,255,255
121,4.132150849000027,15.551013946533203,-4.874724388122559,-14.939239501953125,6.7958149909973145,-0.12023616582155228,0.050893496721982956,0.0,0.0,0.0,1.6106081882466001,70,255,255,255
122,4.169027767999978,15.814271926879883,-4.883755207061768,-14.936996459960938,6.621649265289307,-0.12680399417877197,0.03731902688741684,0.0,0.0,0.0,1.6221019920372186,70,255,255,255
123,4.201745459999984,16.01858139038086,-4.891307830810547,-14.937057495117188,6.489094257354736,-0.1350998729467392,0.024462824687361717,0.0,0.0,0.0,1.6324379865439251,70,255,255,255
124,4.234797508999691,16.218050003051758,-4.8987627029418945,-14.937973022460938,6.3219428062438965,-0.13348518311977386,-0.006603407673537731,0.0,0.0,0.0,1.637038597327037,70,255,255,255
125,4.272490585000014,16.412981033325195,-4.9058709144592285,-14.939651489257812,6.183703422546387,-0.13604997098445892,-0.014908582903444767,0.0,0.0,0.0,1.6444681509780856,70,255,255,255
126,4.30451385699962,16.603862762451172,-4.912744045257568,-14.94158935546875,6.013211250305176,-0.13860169053077698,-0.025772184133529663,0.0,0.0,0.0,1.6471817789708219,70,255,255,255
127,4.336829095999747,16.787900924682617,-4.920653820037842,-14.940750122070312,5.884446620941162,-0.1307179480791092,-0.0006403433508239686,0.0,0.0,0.0,1.651729126532132,70,255,255,255
128,4.378314479999972,17.01236343383789,-4.930486679077148,-14.939102172851562,5.726468563079834,-0.1281120330095291,-0.035284921526908875,0.0,0.0,0.0,1.6543388912423553,70,255,255,255
129,4.4136946639996495,17.187694549560547,-4.937905788421631,-14.938949584960938,5.575897693634033,-0.13317103683948517,-0.055685728788375854,0.0,0.0,0.0,1.6548781813630964,70,255,255,255
130,4.448236328999883,17.357786178588867,-4.945066928863525,-14.93975830078125,5.424806118011475,-0.12822769582271576,-0.05246511101722717,0.0,0.0,0.0,1.6542663201026506,70,255,255,255
131,4.48401689100001,17.520763397216797,-4.95229959487915,-14.941650390625,5.271765232086182,-0.12852947413921356,-0.0710267573595047,0.0,0.0,0.0,1.6528642989467783,70,255,255,255
132,4.516500409999935,17.680038452148438,-4.959195613861084,-14.943984985351562,5.148838043212891,-0.12804751098155975,-0.09222859144210815,0.0,0.0,0.0,1.6499557275622483,70,255,255,255
133,4.558805859999666,17.83620262145996,-4.965686798095703,-14.947525024414062,5.0289530754089355,-0.1204521432518959,-0.11997894942760468,0.0,0.0,0.0,1.6452477913872063,70,255,255,255
134,4.590355864999765,18.026426315307617,-4.973413467407227,-14.951385498046875,4.8586745262146,-0.1082567423582077,-0.11114789545536041,0.0,0.0,0.0,1.6429377654576716,70,255,255,255
135,4.615524930999982,18.173974990844727,-4.979382514953613,-14.952957153320312,4.682063102722168,-0.10496630519628525,-0.10016714036464691,0.0,0.0,0.0,1.6368094323152358,70,255,255,255
136,4.645436183999664,18.317520141601562,-4.984889030456543,-14.954421997070312,4.5623369216918945,-0.10228276997804642,-0.08939912170171738,0.0,0.0,0.0,1.6335186973142792,70,255,255,255
137,4.683074831999875,18.457931518554688,-4.990017414093018,-14.95599365234375,4.457605838775635,-0.09424591809511185,-0.0926455706357956,0.0,0.0,0.0,1.6263597208299827,70,255,255,255
138,4.714909974999955,18.591854095458984,-4.9941630363464355,-14.956161499023438,4.319957256317139,-0.09563785046339035,-0.09980612993240356,0.0,0.0,0.0,1.62244793666282,70,255,255,255
139,4.747486744999605,18.72127914428711,-4.997882843017578,-14.956497192382812,4.1658220291137695,-0.09498177468776703,-0.1168161928653717,0.0,0.0,0.0,1.6144063885932711,70,255,255,255
140,4.784741293000025,18.877262115478516,-5.002328872680664,-14.957351684570312,3.9866652488708496,-0.09266939014196396,-0.13073399662971497,0.0,0.0,0.0,1.6060705612232686,70,255,255,255
141,4.817446181999912,18.997804641723633,-5.0057501792907715,-14.959213256835938,3.8529255390167236,-0.09416036307811737,-0.15271803736686707,0.0,0.0,0.0,1.6010616878450477,70,255,255,255
142,4.849995949999993,19.110858917236328,-5.012581825256348,-14.9627685546875,3.740499973297119,-0.09900803864002228,-0.1445300132036209,0.0,0.0,0.0,1.593395911805309,70,255,255,255
143,4.886892790999809,19.22180938720703,-5.019036293029785,-14.965988159179688,3.659330129623413,-0.09401131421327591,-0.1169733852148056,0.0,0.0,0.0,1.5866003236517539,70,255,255,255
144,4.919946205999622,19.329700469970703,-5.025036334991455,-14.968490600585938,3.5071263313293457,-0.09488347172737122,-0.1035914272069931,0.0,0.0,0.0,1.5796727758661853,70,255,255,255
145,4.952370141999836,19.433921813964844,-5.030505180358887,-14.970840454101562,3.3939850330352783,-0.08920136094093323,-0.08179769665002823,0.0,0.0,0.0,1.5760420883520803,70,255,255,255
146,4.990195978999964,19.556140899658203,-5.036746978759766,-14.974807739257812,3.2879528999328613,-0.08929550647735596,-0.09234808385372162,0.0,0.0,0.0,1.5693241313443007,70,255,255,255
147,5.023926735999794,19.651315689086914,-5.0416059494018555,-14.978622436523438,3.1695613861083984,-0.09510696679353714,-0.11660321056842804,0.0,0.0,0.0,1.5660626911153352,70,255,255,255
148,5.054783243999736,19.743703842163086,-5.046401500701904,-14.983322143554688,3.049161672592163,-0.09463474899530411,-0.13739031553268433,0.0,0.0,0.0,1.5606424925067515,70,255,255,255
149,5.096542198999941,19.831401824951172,-5.050963878631592,-14.98699951171875,2.9565250873565674,-0.09819116443395615,-0.15136481821537018,0.0,0.0,0.0,1.5550169641781226,70,255,255,255
150,5.132473087999642,19.915054321289062,-5.055356502532959,-14.9888916015625,2.8338801860809326,-0.10230854898691177,-0.12396971881389618,0.0,0.0,0.0,1.5527179903671118,70,255,255,255
151,5.16394702999969,19.997129440307617,-5.059487819671631,-14.990631103515625,2.8045177459716797,-0.09885938465595245,-0.13227973878383636,0.0,0.0,0.0,1.5475722305088606,70,255,255,255
152,5.203833611999926,20.097829818725586,-5.064525127410889,-14.99371337890625,2.687715768814087,-0.10379138588905334,-0.1318957507610321,0.0,0.0,0.0,1.5433354075306536,70,255,255,255
153,5.239820119999877,20.172895431518555,-5.069715976715088,-14.99609375,2.597588539123535,-0.10665636509656906,-0.12217769771814346,0.0,0.0,0.0,1.5395818151322413,70,255,255,255
154,5.266650577999826,20.24521827697754,-5.075015068054199,-14.998367309570312,2.5062339305877686,-0.10155439376831055,-0.12802654504776,0.0,0.0,0.0,1.5381871176693669,70,255,255,255
155,5.302510998999878,20.316024780273438,-5.079972743988037,-15.000686645507812,2.4431943893432617,-0.10019299387931824,-0.12306704372167587,0.0,0.0,0.0,1.5354765523118843,70,255,255,255
156,5.337484543999835,20.385234832763672,-5.084686756134033,-15.003189086914062,2.344689130783081,-0.09870804101228714,-0.12434063106775284,0.0,0.0,0.0,1.534360687815141,70,255,255,255
157,5.372102946999803,20.44942283630371,-5.089142799377441,-15.00390625,2.2793257236480713,-0.1054474264383316,-0.09012982994318008,0.0,0.0,0.0,1.5337091454544531,70,255,255,255
158,5.408658875999663,20.52678871154785,-5.094724178314209,-15.003280639648438,2.1730704307556152,-0.10794033855199814,-0.0701831579208374,0.0,0.0,0.0,1.5321964699552881,70,255,255,255
159,5.440994682999644,20.586502075195312,-5.098944664001465,-15.002593994140625,2.0930073261260986,-0.1090008094906807,-0.05430413782596588,0.0,0.0,0.0,1.5316000550291649,70,255,255,255
160,5.469717836999735,20.644119262695312,-5.103414535522461,-15.0010986328125,2.0205163955688477,-0.11088622361421585,-0.06385874003171921,0.0,0.0,0.0,1.5313803442392333,70,255,255,255
161,5.515934798999751,20.69779396057129,-5.1082892417907715,-14.997344970703125,1.9265977144241333,-0.1087876707315445,-0.06551890820264816,0.0,0.0,0.0,1.5313190915341615,70,255,255,255
162,5.552537433999987,20.750059127807617,-5.112841606140137,-14.994049072265625,1.8660913705825806,-0.10188242048025131,-0.06664150953292847,0.0,0.0,0.0,1.5308698162582652,70,255,255,255
163,5.575860784999804,20.800596237182617,-5.117070198059082,-14.99151611328125,1.7727395296096802,-0.10380629450082779,-0.07951826602220535,0.0,0.0,0.0,1.5310375954069402,70,255,255,255
164,5.612770816999728,20.85746955871582,-5.121443271636963,-14.98822021484375,1.6514809131622314,-0.08724194020032883,-0.08183768391609192,0.0,0.0,0.0,1.5327719790668541,70,255,255,255
165,5.640312671999709,20.896150588989258,-5.123948574066162,-14.984375,1.5602073669433594,-0.07056869566440582,-0.06325270235538483,0.0,0.0,0.0,1.5338532224694263,70,255,255,255
166,5.67297242199993,20.933757781982422,-5.125819206237793,-14.980621337890625,1.4953043460845947,-0.05974574014544487,-0.0370539091527462,0.0,0.0,0.0,1.535500787077804,70,255,255,255
167,5.713356904999728,20.96987533569336,-5.127303123474121,-14.976852416992188,1.3835809230804443,-0.04690069705247879,-0.03300265595316887,0.0,0.0,0.0,1.5373462245551743,70,255,255,255
168,5.742338946000018,21.00008773803711,-5.1309814453125,-14.974395751953125,1.2987585067749023,-0.042910631746053696,-0.014023163355886936,0.0,0.0,0.0,1.5384363895473983,70,255,255,255
169,5.775181125000017,21.027803421020508,-5.134964466094971,-14.972198486328125,1.212557077407837,-0.03390742838382721,-0.017448367550969124,0.0,0.0,0.0,1.540595281085071,70,255,255,255
170,5.8140346139998655,21.060178756713867,-5.139034748077393,-14.969833374023438,1.096832275390625,-0.027094701305031776,-0.019602222368121147,0.0,0.0,0.0,1.5433623054576633,70,255,255,255
171,5.852382529999886,21.08475112915039,-5.141842365264893,-14.96783447265625,1.055991768836975,-0.021740201860666275,-0.003498614300042391,0.0,0.0,0.0,1.5449040094127102,70,255,255,255
172,5.88976422099995,21.105430603027344,-5.1431498527526855,-14.9658203125,0.9949632287025452,-0.021441275253891945,0.012106534093618393,0.0,0.0,0.0,1.5475744941957872,70,255,255,255
173,5.919204571999671,21.12533950805664,-5.144144535064697,-14.963668823242188,0.9381153583526611,-0.005667713936418295,0.005815890617668629,0.0,0.0,0.0,1.5503042343131184,70,255,255,255
174,5.954236091999974,21.144712448120117,-5.144525527954102,-14.961456298828125,0.8802977204322815,-0.0018604121869429946,0.011191759258508682,0.0,0.0,0.0,1.553298026852531,70,255,255,255
175,5.989875259999735,21.163230895996094,-5.144694805145264,-14.959945678710938,0.82342129945755,0.0011813645251095295,-0.014027362689375877,0.0,0.0,0.0,1.5542728769695544,70,255,255,255
176,6.026182659999904,21.183107376098633,-5.146389484405518,-14.956069946289062,0.7445307374000549,0.015216149389743805,-0.02671590819954872,0.0,0.0,0.0,1.5568518821691872,70,255,255,255
177,6.05606216599972,21.19791603088379,-5.146867275238037,-14.953262329101562,0.6940913200378418,0.03317843750119209,-0.014245031401515007,0.0,0.0,0.0,1.558193849042478,70,255,255,255
178,6.090718916999776,21.21229362487793,-5.146881580352783,-14.950119018554688,0.6713047027587891,0.02936755307018757,0.0038579741958528757,0.0,0.0,0.0,1.5595679070069046,70,255,255,255
179,6.12747847799983,21.226287841796875,-5.146829128265381,-14.94586181640625,0.6407603025436401,0.028698140755295753,-0.009534639306366444,0.0,0.0,0.0,1.5636678435050815,70,255,255,255
180,6.156730452999909,21.239660263061523,-5.1464643478393555,-14.941421508789062,0.6305252313613892,0.035220880061388016,-0.031531523913145065,0.0,0.0,0.0,1.56441725703583,70,255,255,255
181,6.2010413099997095,21.252779006958008,-5.145843505859375,-14.938095092773438,0.5536814332008362,0.038512930274009705,-0.05383426323533058,0.0,0.0,0.0,1.5668637699712311,70,255,255,255
182,6.232671884999945,21.26776123046875,-5.144794940948486,-14.935104370117188,0.5082350373268127,0.04106317088007927,-0.05439431592822075,0.0,0.0,0.0,1.5681273067504191,70,255,255,255
183,6.266173823999907,21.276962280273438,-5.145859718322754,-14.932571411132812,0.4857802093029022,0.044470980763435364,-0.060992516577243805,0.0,0.0,0.0,1.570958646463337,70,255,255,255
184,6.299051720999614,21.285804748535156,-5.147155284881592,-14.930160522460938,0.45369887351989746,0.04930927976965904,-0.044395603239536285,0.0,0.0,0.0,1.5723187228320403,70,255,255,255
185,6.335081832000014,21.294750213623047,-5.1479973793029785,-14.928115844726562,0.4634365737438202,0.052244894206523895,-0.04324343428015709,0.0,0.0,0.0,1.5736697444530376,70,255,255,255
186,6.3674169719997735,21.30396270751953,-5.148404121398926,-14.92620849609375,0.4106855094432831,0.057137325406074524,-0.041104018688201904,0.0,0.0,0.0,1.5746625709074191,70,255,255,255
187,6.404391851999662,21.314167022705078,-5.148961067199707,-14.923812866210938,0.3959718644618988,0.05648239329457283,-0.07555127143859863,0.0,0.0,0.0,1.5755284977358583,70,255,255,255
188,6.4406597779998265,21.327695846557617,-5.149600505828857,-14.921188354492188,0.3970014154911041,0.04708331078290939,-0.09162665158510208,0.0,0.0,0.0,1.5774446421401704,70,255,255,255
189,6.467553640999995,21.339431762695312,-5.149979114532471,-14.919723510742188,0.40872010588645935,0.047133639454841614,-0.07424208521842957,0.0,0.0,0.0,1.5787360089527498,70,255,255,255
190,6.505436789999749,21.351234436035156,-5.150170803070068,-14.917572021484375,0.4010900557041168,0.052901580929756165,-0.0719258263707161,0.0,0.0,0.0,1.579427498729789,70,255,255,255
191,6.54042553599993,21.3623104095459,-5.15034294128418,-14.913955688476562,0.38701069355010986,0.055317867547273636,-0.06565728783607483,0.0,0.0,0.0,1.5798602624069267,70,255,255,255
192,6.581105215999742,21.37339973449707,-5.150345802307129,-14.91033935546875,0.38346433639526367,0.05529285594820976,-0.06104416027665138,0.0,0.0,0.0,1.5801753143638833,70,255,255,255
193,6.604896467999879,21.384563446044922,-5.150025844573975,-14.907257080078125,0.37351301312446594,0.057590778917074203,-0.06567253917455673,0.0,0.0,0.0,1.5800617305433913,70,255,255,255
194,6.636275526999725,21.396577835083008,-5.150299072265625,-14.904754638671875,0.30931055545806885,0.048260487616062164,-0.08931061625480652,0.0,0.0,0.0,1.5803992862115588,70,255,255,255
195,6.6704607970000325,21.403968811035156,-5.151241779327393,-14.904388427734375,0.30738821625709534,0.04800131916999817,-0.11639077961444855,0.0,0.0,0.0,1.580083834780439,70,255,255,255
196,6.701418638999712,21.41118621826172,-5.152019500732422,-14.905197143554688,0.2682591676712036,0.044002924114465714,-0.13733863830566406,0.0,0.0,0.0,1.5798404218568056,70,255,255,255
197,6.741241831000025,21.418249130249023,-5.152719497680664,-14.90643310546875,0.26951491832733154,0.03824310749769211,-0.13267868757247925,0.0,0.0,0.0,1.5794039297541418,70,255,255,255
198,6.77149211699998,21.422351837158203,-5.15452766418457,-14.90447998046875,0.241409569978714,0.047563664615154266,-0.12572947144508362,0.0,0.0,0.0,1.5793719718210608,70,255,255,255
199,6.803635161999864,21.425779342651367,-5.156325817108154,-14.9019775390625,0.25761327147483826,0.045152075588703156,-0.11862103641033173,0.0,0.0,0.0,1.5783577069199042,70,255,255,255
200,6.84773316799965,21.43023681640625,-5.158334732055664,-14.899627685546875,0.2018039971590042,0.040149249136447906,-0.10631018131971359,0.0,0.0,0.0,1.577594844425651,70,255,255,255
201,6.878827506999642,21.433025360107422,-5.159682750701904,-14.897613525390625,0.18720613420009613,0.04190361499786377,-0.11063647270202637,0.0,0.0,0.0,1.5770337163839712,70,255,255,255
202,6.910292530999868,21.433719635009766,-5.162094593048096,-14.896713256835938,0.16241630911827087,0.04071829468011856,-0.1254192292690277,0.0,0.0,0.0,1.5768559503812083,70,255,255,255
203,6.953270951999912,21.433849334716797,-5.16453218460083,-14.895843505859375,0.09918951243162155,0.046968188136816025,-0.10900561511516571,0.0,0.0,0.0,1.5758283696746014,70,255,255,255
204,6.9876941979996445,21.433086395263672,-5.165593147277832,-14.895401000976562,0.07273689657449722,0.04716944321990013,-0.11262597143650055,0.0,0.0,0.0,1.5756904179301352,70,255,255,255
205,7.017927689999851,21.432050704956055,-5.166673183441162,-14.89495849609375,0.04305551201105118,0.04832160472869873,-0.10527735948562622,0.0,0.0,0.0,1.5749564507337093,70,255,255,255
206,7.050753922999775,21.425395965576172,-5.168445587158203,-14.892562866210938,0.028749600052833557,0.041305869817733765,-0.12006472051143646,0.0,0.0,0.0,1.5749865444540272,70,255,255,255
207,7.0840971759998865,21.42083168029785,-5.169586181640625,-14.89166259765625,0.05031696334481239,0.04423414170742035,-0.1341126263141632,0.0,0.0,0.0,1.5745918639804775,70,255,255,255
208,7.115550955999879,21.41775894165039,-5.170312404632568,-14.890960693359375,0.0446937121450901,0.04767154902219772,-0.09913519024848938,0.0,0.0,0.0,1.5738207456868452,70,255,255,255
209,7.160463896999772,21.41412925720215,-5.172494411468506,-14.888702392578125,0.049070537090301514,0.057759277522563934,-0.09153390675783157,0.0,0.0,0.0,1.5730986295572702,70,255,255,255
210,7.194085327999801,21.41089630126953,-5.175952911376953,-14.885772705078125,0.054862264543771744,0.06284794211387634,-0.09043422341346741,0.0,0.0,0.0,1.572776520223425,70,255,255,255
211,7.219753041999866,21.408308029174805,-5.178621768951416,-14.883682250976562,0.05877980962395668,0.07212012261152267,-0.11316347122192383,0.0,0.0,0.0,1.5720069998264465,70,255,255,255
212,7.253507795999667,21.406064987182617,-5.180948734283447,-14.882110595703125,0.04784958437085152,0.07571665942668915,-0.1215687096118927,0.0,0.0,0.0,1.5710023223052143,70,255,255,255
213,7.28832922599986,21.402305603027344,-5.184746742248535,-14.878936767578125,0.024587595835328102,0.07175326347351074,-0.0921846255660057,0.0,0.0,0.0,1.5700973801668052,70,255,255,255
214,7.320609969999623,21.397991180419922,-5.188694000244141,-14.87567138671875,0.0007636246737092733,0.07645732164382935,-0.10895951092243195,0.0,0.0,0.0,1.5698860583343075,70,255,255,255
215,7.360226328999943,21.39263343811035,-5.1920905113220215,-14.873458862304688,-0.05071375519037247,0.06996159255504608,-0.13278397917747498,0.0,0.0,0.0,1.5688010865062092,70,255,255,255
216,7.397559390999959,21.38673973083496,-5.194952964782715,-14.871841430664062,-0.09101898223161697,0.06712380796670914,-0.1149919256567955,0.0,0.0,0.0,1.5689295840288056,70,255,255,255
217,7.425790080999832,21.38016700744629,-5.196465969085693,-14.869247436523438,-0.08298199623823166,0.06189762055873871,-0.12247288972139359,0.0,0.0,0.0,1.5686843068924092,70,255,255,255
218,7.466764844999943,21.372127532958984,-5.197434902191162,-14.865997314453125,-0.11488378793001175,0.06870336830615997,-0.10824381560087204,0.0,0.0,0.0,1.5677846910761806,70,255,255,255
219,7.49629118599978,21.365047454833984,-5.197641849517822,-14.863265991210938,-0.13794778287410736,0.06966159492731094,-0.08169106394052505,0.0,0.0,0.0,1.5671588482200118,70,255,255,255
220,7.527778863999629,21.358295440673828,-5.198429584503174,-14.858993530273438,-0.1276577115058899,0.066156767308712,-0.07749275118112564,0.0,0.0,0.0,1.5667330087617082,70,255,255,255
221,7.567292293999799,21.351335525512695,-5.200685977935791,-14.85101318359375,-0.17210403084754944,0.07140323519706726,-0.0805414617061615,0.0,0.0,0.0,1.5667680293300428,70,255,255,255
222,7.6008001420000255,21.34474754333496,-5.202330112457275,-14.844100952148438,-0.14213038980960846,0.06813735514879227,-0.09967193752527237,0.0,0.0,0.0,1.5666198244153797,70,255,255,255
223,7.628621930999998,21.338754653930664,-5.20373010635376,-14.838241577148438,-0.13631942868232727,0.06333502382040024,-0.08844060450792313,0.0,0.0,0.0,1.5661290038264781,70,255,255,255
224,7.663758746999974,21.33126449584961,-5.206240177154541,-14.82989501953125,-0.1413162797689438,0.05751989781856537,-0.13075590133666992,0.0,0.0,0.0,1.566207966552799,70,255,255,255
225,7.696560161999969,21.324735641479492,-5.209163665771484,-14.821380615234375,-0.13850580155849457,0.04771990701556206,-0.13201627135276794,0.0,0.0,0.0,1.5659661515258199,70,255,255,255
226,7.729035766999914,21.31844711303711,-5.2118449211120605,-14.814498901367188,-0.1203051432967186,0.04879080504179001,-0.1345638483762741,0.0,0.0,0.0,1.5666840065976508,70,255,255,255
227,7.766301026999827,21.313222885131836,-5.2139739990234375,-14.808670043945312,-0.11327800154685974,0.0460255965590477,-0.13508695363998413,0.0,0.0,0.0,1.5669862753813748,70,255,255,255
228,7.80330054299975,21.3079833984375,-5.2156853675842285,-14.801376342773438,-0.14105002582073212,0.04796219989657402,-0.1444607824087143,0.0,0.0,0.0,1.5669294168921015,70,255,255,255
229,7.83847294799989,21.302770614624023,-5.2169952392578125,-14.794631958007812,-0.14663192629814148,0.046386491507291794,-0.14479658007621765,0.0,0.0,0.0,1.566706776624971,70,255,255,255
230,7.87606187099982,21.296640396118164,-5.217946529388428,-14.788162231445312,-0.1471676528453827,0.0572330504655838,-0.17030982673168182,0.0,0.0,0.0,1.5659823968084694,70,255,255,255
231,7.907936608,21.290904998779297,-5.218117713928223,-14.784332275390625,-0.17758502066135406,0.06408315151929855,-0.1770339161157608,0.0,0.0,0.0,1.5660291352856002,70,255,255,255
232,7.944681424000009,21.282703399658203,-5.2228875160217285,-14.782623291015625,-0.1911052167415619,0.0711866170167923,-0.1909438669681549,0.0,0.0,0.0,1.5654914430615132,70,255,255,255
233,7.979022687999986,21.27457046508789,-5.2268829345703125,-14.782363891601562,-0.20504336059093475,0.07578334212303162,-0.22192107141017914,0.0,0.0,0.0,1.5658025002768345,70,255,255,255
234,8.007405959999687,21.26679229736328,-5.230137348175049,-14.783248901367188,-0.18284456431865692,0.07331187278032303,-0.2262766808271408,0.0,0.0,0.0,1.5653649429097345,70,255,255,255
235,8.043345575999865,21.25966453552246,-5.23281717300415,-14.785064697265625,-0.19217881560325623,0.07368077337741852,-0.22934144735336304,0.0,0.0,0.0,1.5655232678365396,70,255,255,255
236,8.083817516999716,21.25003433227539,-5.2356276512146,-14.785446166992188,-0.19981326162815094,0.07169739902019501,-0.23995031416416168,0.0,0.0,0.0,1.5657139501705895,70,255,255,255
237,8.112612107999666,21.24229621887207,-5.23738431930542,-14.786453247070312,-0.19272740185260773,0.0718696191906929,-0.21982228755950928,0.0,0.0,0.0,1.5655166099338145,70,255,255,255
238,8.14616299699992,21.23537826538086,-5.238697528839111,-14.787216186523438,-0.18705783784389496,0.07483314722776413,-0.19939778745174408,0.0,0.0,0.0,1.5662411229083706,70,255,255,255
239,8.1821796549998,21.22824478149414,-5.240767478942871,-14.790115356445312,-0.1941431313753128,0.0693773403763771,-0.20551390945911407,0.0,0.0,0.0,1.5667910656734718,70,255,255,255
240,8.213371632999952,21.221460342407227,-5.243468761444092,-14.794921875,-0.172421395778656,0.07782581448554993,-0.21295779943466187,0.0,0.0,0.0,1.5668330104606407,70,255,255,255
241,8.247008122999887,21.215349197387695,-5.24529504776001,-14.800262451171875,-0.15856221318244934,0.08325303345918655,-0.22654594480991364,0.0,0.0,0.0,1.5675093202194663,70,255,255,255
242,8.28204486300001,21.207021713256836,-5.247231483459473,-14.80645751953125,-0.23980103433132172,0.07021387666463852,-0.18669015169143677,0.0,0.0,0.0,1.5678319621855294,70,255,255,255
243,8.314407610999751,21.196775436401367,-5.250843048095703,-14.810638427734375,-0.25576430559158325,0.07159271091222763,-0.17161062359809875,0.0,0.0,0.0,1.5682045384220316,70,255,255,255
244,8.347278850999828,21.1854190826416,-5.254500389099121,-14.814727783203125,-0.2824341356754303,0.07636284828186035,-0.16992059350013733,0.0,0.0,0.0,1.5683687223032348,70,255,255,255
245,8.385462630999882,21.174049377441406,-5.257526874542236,-14.818679809570312,-0.29050299525260925,0.07367349416017532,-0.15451565384864807,0.0,0.0,0.0,1.5682755116650822,70,255,255,255
246,8.419935747999716,21.163076400756836,-5.259990692138672,-14.821990966796875,-0.29633429646492004,0.07816115021705627,-0.15002934634685516,0.0,0.0,0.0,1.5681279725406918,70,255,255,255
247,8.451989082999717,21.150747299194336,-5.2622528076171875,-14.821823120117188,-0.32872486114501953,0.08039917051792145,-0.12185962498188019,0.0,0.0,0.0,1.568419988154219,70,255,255,255
248,8.494249679999939,21.133956909179688,-5.2642436027526855,-14.820236206054688,-0.3621143102645874,0.0910046175122261,-0.11500062048435211,0.0,0.0,0.0,1.5680282371578682,70,255,255,255
249,8.522316967999814,21.12022590637207,-5.265084743499756,-14.818923950195312,-0.3813333213329315,0.09659142792224884,-0.10585590451955795,0.0,0.0,0.0,1.5678908180456201,70,255,255,255
250,8.553819999999632,21.1064395904541,-5.266231536865234,-14.817642211914062,-0.37709811329841614,0.10073575377464294,-0.11218692362308502,0.0,0.0,0.0,1.5688430312933779,70,255,255,255
251,8.59365530499963,21.093544006347656,-5.269054889678955,-14.81512451171875,-0.3804739713668823,0.10511957108974457,-0.11649548262357712,0.0,0.0,0.0,1.5685120003698811,70,255,255,255
252,8.625653794999835,21.080556869506836,-5.271228313446045,-14.812789916992188,-0.3911866247653961,0.10200754553079605,-0.10772517323493958,0.0,0.0,0.0,1.5686323752511526,70,255,255,255
253,8.656199750999804,21.067596435546875,-5.272604942321777,-14.811569213867188,-0.39733460545539856,0.11236272007226944,-0.1321350634098053,0.0,0.0,0.0,1.5687942954454295,70,255,255,255
254,8.693769246999636,21.052053451538086,-5.274971008300781,-14.810394287109375,-0.37973344326019287,0.11522158235311508,-0.14613917469978333,0.0,0.0,0.0,1.5693454366330215,70,255,255,255
255,8.725937602999693,21.040111541748047,-5.278208255767822,-14.808975219726562,-0.37620076537132263,0.11077815294265747,-0.1471203714609146,0.0,0.0,0.0,1.5697094907540352,70,255,255,255
256,8.758573780000006,21.02804946899414,-5.28065824508667,-14.808563232421875,-0.3825477659702301,0.11527600884437561,-0.16107232868671417,0.0,0.0,0.0,1.569673005447101,70,255,255,255
257,8.795475865999833,21.0161190032959,-5.2823872566223145,-14.809112548828125,-0.3811291754245758,0.12259268015623093,-0.17293690145015717,0.0,0.0,0.0,1.5696070922101217,70,255,255,255
258,8.828110852999998,21.004179000854492,-5.2846832275390625,-14.810531616210938,-0.3780483603477478,0.13124163448810577,-0.1777864545583725,0.0,0.0,0.0,1.5706992545731633,70,255,255,255
259,8.86952234699993,20.992080688476562,-5.286617279052734,-14.8125,-0.3579765856266022,0.12553678452968597,-0.18909510970115662,0.0,0.0,0.0,1.5708929995424665,70,255,255,255
260,8.90040834499996,20.9779052734375,-5.288373947143555,-14.815658569335938,-0.3529440462589264,0.128458172082901,-0.18380458652973175,0.0,0.0,0.0,1.5709382732809978,70,255,255,255
261,8.931778522999593,20.967004776000977,-5.289048671722412,-14.818222045898438,-0.3333072364330292,0.12698818743228912,-0.18540383875370026,0.0,0.0,0.0,1.571129088773102,70,255,255,255
262,8.963780398999916,20.95623779296875,-5.293004512786865,-14.818695068359375,-0.31215518712997437,0.1224772036075592,-0.1831125169992447,0.0,0.0,0.0,1.5710229618036624,70,255,255,255
263,9.001789508000002,20.945829391479492,-5.296139240264893,-14.81951904296875,-0.3226437270641327,0.12853652238845825,-0.17230567336082458,0.0,0.0,0.0,1.571662786255554,70,255,255,255
264,9.036659286000031,20.93275260925293,-5.298978805541992,-14.82135009765625,-0.31813421845436096,0.13259804248809814,-0.16241206228733063,0.0,0.0,0.0,1.5718642543920183,70,255,255,255
265,9.067323592999855,20.925121307373047,-5.300127029418945,-14.82232666015625,-0.3129214942455292,0.1308053582906723,-0.15534155070781708,0.0,0.0,0.0,1.572000741397885,70,255,255,255
266,9.111239313999704,20.909868240356445,-5.305372714996338,-14.827346801757812,-0.3182623088359833,0.1425224244594574,-0.17784155905246735,0.0,0.0,0.0,1.5717028668299595,70,255,255,255
267,9.137695128999894,20.897930145263672,-5.308282375335693,-14.831756591796875,-0.31853097677230835,0.1443103700876236,-0.17398428916931152,0.0,0.0,0.0,1.571446138100876,70,255,255,255
268,9.167336059999798,20.886173248291016,-5.310373306274414,-14.836181640625,-0.32458266615867615,0.14723257720470428,-0.16172704100608826,0.0,0.0,0.0,1.5721967500541147,70,255,255,255
269,9.20422788299993,20.87443733215332,-5.312726974487305,-14.841583251953125,-0.3402737081050873,0.14250129461288452,-0.16629034280776978,0.0,0.0,0.0,1.572234833257703,70,255,255,255
270,9.236530045999643,20.86353874206543,-5.315173149108887,-14.84765625,-0.3218744099140167,0.14389938116073608,-0.15432040393352509,0.0,0.0,0.0,1.572475050388028,70,255,255,255
271,9.268973322999955,20.852306365966797,-5.316897392272949,-14.853790283203125,-0.35411128401756287,0.1415719836950302,-0.16668418049812317,0.0,0.0,0.0,1.571956666081844,70,255,255,255
272,9.306002341999829,20.837787628173828,-5.318137168884277,-14.862258911132812,-0.3716822862625122,0.14480826258659363,-0.19821351766586304,0.0,0.0,0.0,1.571911924975531,70,255,255,255
273,9.338019008999709,20.825946807861328,-5.319839954376221,-14.8660888671875,-0.3371667265892029,0.14365148544311523,-0.2035619169473648,0.0,0.0,0.0,1.5719603945073701,70,255,255,255
274,9.370478863999779,20.81482696533203,-5.321328163146973,-14.869216918945312,-0.3187433183193207,0.14111457765102386,-0.20305903255939484,0.0,0.0,0.0,1.5719018049633884,70,255,255,255
275,9.407455102999847,20.80390739440918,-5.322210788726807,-14.87261962890625,-0.3426411747932434,0.1384071707725525,-0.1938316524028778,0.0,0.0,0.0,1.5716761020610042,70,255,255,255
276,9.439980373999788,20.792869567871094,-5.32265567779541,-14.87615966796875,-0.3342758119106293,0.13689260184764862,-0.20729780197143555,0.0,0.0,0.0,1.5719847624313446,70,255,255,255
277,9.472822648999681,20.784772872924805,-5.3239521980285645,-14.878021240234375,-0.3220120072364807,0.1412721872329712,-0.18695761263370514,0.0,0.0,0.0,1.5715707740398916,70,255,255,255
278,9.509278835999794,20.775930404663086,-5.324860572814941,-14.879608154296875,-0.302007257938385,0.14710751175880432,-0.1650097370147705,0.0,0.0,0.0,1.5710095128401573,70,255,255,255
279,9.541673458999867,20.769180297851562,-5.325048923492432,-14.880599975585938,-0.2934736907482147,0.14522340893745422,-0.1501549631357193,0.0,0.0,0.0,1.5700884585771535,70,255,255,255
280,9.574065596999844,20.762590408325195,-5.3250861167907715,-14.88128662109375,-0.29440927505493164,0.14939148724079132,-0.11794545501470566,0.0,0.0,0.0,1.569634123295186,70,255,255,255
281,9.61099797199995,20.75733757019043,-5.325695514678955,-14.882476806640625,-0.27140629291534424,0.1527249962091446,-0.14174196124076843,0.0,0.0,0.0,1.5688969603054521,70,255,255,255
282,9.643367126999692,20.75314712524414,-5.325829982757568,-14.883987426757812,-0.2191186100244522,0.14433073997497559,-0.1280815154314041,0.0,0.0,0.0,1.56869349479817,70,255,255,255
283,9.683094196999718,20.749067306518555,-5.325656414031982,-14.885284423828125,-0.24675290286540985,0.14316843450069427,-0.11357232928276062,0.0,0.0,0.0,1.5687511522357702,70,255,255,255
284,9.721100730999751,20.74485206604004,-5.326381206512451,-14.886520385742188,-0.1985512673854828,0.1502276062965393,-0.12237443029880524,0.0,0.0,0.0,1.5685704567558083,70,255,255,255
285,9.747750203999658,20.7435359954834,-5.328057765960693,-14.887527465820312,-0.19340553879737854,0.14993330836296082,-0.13066931068897247,0.0,0.0,0.0,1.5688185302113493,70,255,255,255
286,9.778084941999623,20.74159049987793,-5.328980922698975,-14.888961791992188,-0.19862686097621918,0.16438698768615723,-0.14389076828956604,0.0,0.0,0.0,1.569179921171273,70,255,255,255
287,9.814941484999963,20.738737106323242,-5.3289103507995605,-14.89093017578125,-0.2254031002521515,0.16973039507865906,-0.12180916219949722,0.0,0.0,0.0,1.569279523396042,70,255,255,255
288,9.847867266999856,20.734115600585938,-5.33015251159668,-14.890716552734375,-0.23987630009651184,0.1728474646806717,-0.12289898842573166,0.0,0.0,0.0,1.5689038845242862,70,255,255,255
289,9.881673946999854,20.729148864746094,-5.331239223480225,-14.890396118164062,-0.22919806838035583,0.18232461810112,-0.11401374638080597,0.0,0.0,0.0,1.5688651355304257,70,255,255,255
290,9.916775178999615,20.723569869995117,-5.331122398376465,-14.890579223632812,-0.2243625372648239,0.19489888846874237,-0.11824825406074524,0.0,0.0,0.0,1.5690500920681316,70,255,255,255
291,9.951422033999734,20.71874237060547,-5.330323219299316,-14.8912353515625,-0.21392308175563812,0.1867465376853943,-0.1311778426170349,0.0,0.0,0.0,1.5692262601742404,70,255,255,255
292,9.983869093999601,20.717260360717773,-5.329854488372803,-14.887359619140625,-0.19468429684638977,0.18574512004852295,-0.14054656028747559,0.0,0.0,0.0,1.5691261253172535,70,255,255,255
293,10.019014969999716,20.716108322143555,-5.328643798828125,-14.884613037109375,-0.1632842868566513,0.18981702625751495,-0.14089427888393402,0.0,0.0,0.0,1.5692791239218784,70,255,255,255
294,10.052018170999872,20.715316772460938,-5.326771259307861,-14.882476806640625,-0.1390804648399353,0.19281910359859467,-0.14690807461738586,0.0,0.0,0.0,1.5693883135265716,70,255,255,255
295,10.083957341999849,20.71546173095703,-5.324349403381348,-14.880813598632812,-0.10145299136638641,0.1971166431903839,-0.1331963688135147,0.0,0.0,0.0,1.568980983037844,70,255,255,255
296,10.120772023999962,20.716978073120117,-5.325166702270508,-14.876907348632812,-0.1410287767648697,0.1983376443386078,-0.1454927772283554,0.0,0.0,0.0,1.569648903839236,70,255,255,255
297,10.153584940999735,20.716779708862305,-5.324853897094727,-14.8740234375,-0.16643314063549042,0.2041037678718567,-0.12593531608581543,0.0,0.0,0.0,1.5698117561398943,70,255,255,255
298,10.185913323000023,20.715682983398438,-5.323741912841797,-14.871826171875,-0.1574106067419052,0.20566712319850922,-0.12623605132102966,0.0,0.0,0.0,1.5702165566255863,70,255,255,255
299,10.22294703999978,20.71554183959961,-5.323062419891357,-14.868072509765625,-0.13692055642604828,0.20651477575302124,-0.11386179178953171,0.0,0.0,0.0,1.5703778110295907,70,255,255,255
300,10.255184090999592,20.7158145904541,-5.3224778175354,-14.863174438476562,-0.12921775877475739,0.2152131050825119,-0.10338935256004333,0.0,0.0,0.0,1.5704218863456314,70,255,255,255
301,10.28766068099958,20.715272903442383,-5.321122169494629,-14.859375,-0.1362089067697525,0.21834638714790344,-0.1209033876657486,0.0,0.0,0.0,1.571242938909703,70,255,255,255
302,10.32447493599966,20.713809967041016,-5.318193435668945,-14.8555908203125,-0.157749742269516,0.22978255152702332,-0.10622190684080124,0.0,0.0,0.0,1.5718309648783924,70,255,255,255
303,10.35693212399974,20.71192169189453,-5.315481185913086,-14.851547241210938,-0.16775193810462952,0.24316509068012238,-0.08604490756988525,0.0,0.0,0.0,1.5718819644132673,70,255,255,255
304,10.389203900999746,20.7101993560791,-5.31200647354126,-14.8477783203125,-0.13491281867027283,0.2508397400379181,-0.07980897277593613,0.0,0.0,0.0,1.5721167220633578,70,255,255,255
305,10.426202115999786,20.708656311035156,-5.307765483856201,-14.845062255859375,-0.16248567402362823,0.26769816875457764,-0.10906773805618286,0.0,0.0,0.0,1.571503795538476,70,255,255,255
306,10.459040720999838,20.70598602294922,-5.302597522735596,-14.843124389648438,-0.17912249267101288,0.2781837284564972,-0.1063695177435875,0.0,0.0,0.0,1.5715404140034648,70,255,255,255
307,10.491060551999908,20.7039737701416,-5.29889440536499,-14.839767456054688,-0.1842775046825409,0.2992943823337555,-0.10135696828365326,0.0,0.0,0.0,1.5715899487997402,70,255,255,255
308,10.527837118999742,20.70124053955078,-5.293582439422607,-14.835464477539062,-0.20275157690048218,0.32120510935783386,-0.10673387348651886,0.0,0.0,0.0,1.5714084543714513,70,255,255,255
309,10.560839080999813,20.697763442993164,-5.28794527053833,-14.833114624023438,-0.22319833934307098,0.33820486068725586,-0.11338483542203903,0.0,0.0,0.0,1.5709678343690976,70,255,255,255
310,10.593273002999922,20.694446563720703,-5.282009601593018,-14.8311767578125,-0.21570734679698944,0.35484403371810913,-0.12372200936079025,0.0,0.0,0.0,1.5716362878027075,70,255,255,255
311,10.630178360999707,20.69149398803711,-5.276857376098633,-14.828109741210938,-0.2375970482826233,0.3814855217933655,-0.12166201323270798,0.0,0.0,0.0,1.5717433468785287,70,255,255,255
312,10.662637002999872,20.687740325927734,-5.270177364349365,-14.825515747070312,-0.2424878031015396,0.4063464403152466,-0.12132075428962708,0.0,0.0,0.0,1.571600734602155,70,255,255,255
313,10.694814570999824,20.683122634887695,-5.262021541595459,-14.82403564453125,-0.2638939619064331,0.434928834438324,-0.1347915083169937,0.0,0.0,0.0,1.5705290785795072,70,255,255,255
314,10.731862958999955,20.677108764648438,-5.251526355743408,-14.825332641601562,-0.2822352647781372,0.46269193291664124,-0.15740527212619781,0.0,0.0,0.0,1.5707910004727164,70,255,255,255
315,10.764293812999767,20.673675537109375,-5.243302822113037,-14.829544067382812,-0.265507310628891,0.48575302958488464,-0.16758869588375092,0.0,0.0,0.0,1.5712847505388172,70,255,255,255
316,10.796579002999806,20.670560836791992,-5.233609676361084,-14.833908081054688,-0.2610795795917511,0.51008540391922,-0.16222573816776276,0.0,0.0,0.0,1.5717273679119883,70,255,255,255
317,10.83330038799977,20.667144775390625,-5.222323894500732,-14.838394165039062,-0.2533073127269745,0.5398819446563721,-0.16210204362869263,0.0,0.0,0.0,1.5715488029608984,70,255,255,255
318,10.86612494999963,20.664457321166992,-5.209882736206055,-14.842453002929688,-0.2568880319595337,0.5784011483192444,-0.15489889681339264,0.0,0.0,0.0,1.5717378873982941,70,255,255,255
319,10.898743923999973,20.662124633789062,-5.195817947387695,-14.846420288085938,-0.22544212639331818,0.6085001826286316,-0.1465906798839569,0.0,0.0,0.0,1.5721096646864692,70,255,255,255
320,10.935096212999724,20.65960121154785,-5.175665855407715,-14.851715087890625,-0.20318956673145294,0.6678632497787476,-0.1537013202905655,0.0,0.0,0.0,1.5723651949930624,70,255,255,255
321,10.967981865999718,20.657852172851562,-5.1573286056518555,-14.85638427734375,-0.19549976289272308,0.7152311205863953,-0.17626875638961792,0.0,0.0,0.0,1.5733387135295407,70,255,255,255
322,11.000298460999602,20.65843391418457,-5.137622356414795,-14.856552124023438,-0.16948798298835754,0.7627796530723572,-0.16575776040554047,0.0,0.0,0.0,1.5738855936593885,70,255,255,255
323,11.037012283999957,20.65951156616211,-5.116060256958008,-14.856613159179688,-0.1636808067560196,0.7997018694877625,-0.13052695989608765,0.0,0.0,0.0,1.5753595201646928,70,255,255,255
324,11.069815961999666,20.660646438598633,-5.086916446685791,-14.85687255859375,-0.1435277760028839,0.8470942378044128,-0.1384672373533249,0.0,0.0,0.0,1.5764973557404292,70,255,255,255
325,11.102150359000007,20.661190032958984,-5.068147659301758,-14.857666015625,-0.12534697353839874,0.8849021196365356,-0.1527026891708374,0.0,0.0,0.0,1.5773676767846672,70,255,255,255
326,11.138636565999604,20.66156768798828,-5.035233020782471,-14.86383056640625,-0.08467982709407806,0.9596737027168274,-0.18165992200374603,0.0,0.0,0.0,1.5792381479762843,70,255,255,255
327,11.172216752999702,20.66361427307129,-5.006392002105713,-14.869766235351562,-0.020539555698633194,1.0189775228500366,-0.2009366750717163,0.0,0.0,0.0,1.5797979444374188,70,255,255,255
328,11.204224310999962,20.666318893432617,-4.975276947021484,-14.875900268554688,0.0004888761322945356,1.083240032196045,-0.20572927594184875,0.0,0.0,0.0,1.5828475302016687,70,255,255,255
329,11.240373058999921,20.67047119140625,-4.9428534507751465,-14.882293701171875,-0.016060631722211838,1.1487094163894653,-0.22999626398086548,0.0,0.0,0.0,1.5855256049938524,70,255,255,255
330,11.274070648999896,20.675233840942383,-4.909372329711914,-14.887847900390625,0.018237903714179993,1.2111456394195557,-0.21715553104877472,0.0,0.0,0.0,1.587401535665704,70,255,255,255
331,11.305390742999862,20.680662155151367,-4.873260974884033,-14.8936767578125,0.045534923672676086,1.2701287269592285,-0.21881435811519623,0.0,0.0,0.0,1.5897923885343228,70,255,255,255
332,11.342617548999897,20.687490463256836,-4.825056076049805,-14.9017333984375,0.0535738468170166,1.3488059043884277,-0.2484341412782669,0.0,0.0,0.0,1.592471928065106,70,255,255,255
333,11.375177659999736,20.695371627807617,-4.784696102142334,-14.908233642578125,0.06620781123638153,1.4091453552246094,-0.25268885493278503,0.0,0.0,0.0,1.5957887620447453,70,255,255,255
334,11.40767832399979,20.704269409179688,-4.742414951324463,-14.9140625,0.09669872373342514,1.4635281562805176,-0.21331652998924255,0.0,0.0,0.0,1.597397843975371,70,255,255,255
335,11.444338313999651,20.713871002197266,-4.697502613067627,-14.92010498046875,0.1510438770055771,1.536795735359192,-0.2311617136001587,0.0,0.0,0.0,1.6014928536255315,70,255,255,255
336,11.477478581000014,20.72466468811035,-4.650440216064453,-14.925888061523438,0.199603870511055,1.5873836278915405,-0.20130963623523712,0.0,0.0,0.0,1.6056500480871452,70,255,255,255
337,11.509871896999812,20.742631912231445,-4.591695308685303,-14.931549072265625,0.2042914181947708,1.6551145315170288,-0.18384335935115814,0.0,0.0,0.0,1.607748485868073,70,255,255,255
338,11.546335448999798,20.756567001342773,-4.542823314666748,-14.935653686523438,0.17898641526699066,1.7020174264907837,-0.16788525879383087,0.0,0.0,0.0,1.6125092857907533,70,255,255,255
339,11.57900351599983,20.769216537475586,-4.491849422454834,-14.939498901367188,0.17100779712200165,1.748848795890808,-0.15874068439006805,0.0,0.0,0.0,1.614886689695867,70,255,255,255
340,11.611327893999714,20.782184600830078,-4.439500331878662,-14.943649291992188,0.2061881721019745,1.7970584630966187,-0.1329643577337265,0.0,0.0,0.0,1.6201074175388037,70,255,255,255
341,11.647841291999612,20.797128677368164,-4.387012481689453,-14.94952392578125,0.2190694808959961,1.841157078742981,-0.13708540797233582,0.0,0.0,0.0,1.6248955148626572,70,255,255,255
342,11.681085403999987,20.811317443847656,-4.332103729248047,-14.955673217773438,0.2109905183315277,1.9011802673339844,-0.12892010807991028,0.0,0.0,0.0,1.6302941418664114,70,255,255,255
343,11.713169751999885,20.8249568939209,-4.274977684020996,-14.961029052734375,0.22256039083003998,1.9508769512176514,-0.10801266133785248,0.0,0.0,0.0,1.6320959035019045,70,255,255,255
344,11.749856068999634,20.842395782470703,-4.201539039611816,-14.966644287109375,0.21917152404785156,2.0152347087860107,-0.09956958144903183,0.0,0.0,0.0,1.637509177891654,70,255,255,255
345,11.782799353999962,20.856285095214844,-4.1412835121154785,-14.970489501953125,0.23422566056251526,2.061405897140503,-0.09856908023357391,0.0,0.0,0.0,1.641137202244669,70,255,255,255
346,11.815064226999766,20.869596481323242,-4.079246997833252,-14.97412109375,0.20759586989879608,2.0992431640625,-0.08377140760421753,0.0,0.0,0.0,1.6468282443361137,70,255,255,255
347,11.852088964999894,20.88187026977539,-4.0156474113464355,-14.977264404296875,0.21202264726161957,2.126206636428833,-0.06977589428424835,0.0,0.0,0.0,1.6527813414788224,70,255,255,255
348,11.884587794999788,20.894880294799805,-3.950786828994751,-14.982009887695312,0.20034988224506378,2.1694064140319824,-0.07504825294017792,0.0,0.0,0.0,1.658429506676717,70,255,255,255
349,11.917145414999595,20.90778350830078,-3.884289503097534,-14.986785888671875,0.20646712183952332,2.2058050632476807,-0.07118349522352219,0.0,0.0,0.0,1.6613527254472424,70,255,255,255
350,11.953469780999967,20.92375373840332,-3.799004316329956,-14.991836547851562,0.22981776297092438,2.2580044269561768,-0.0342252217233181,0.0,0.0,0.0,1.6680702829808582,70,255,255,255
351,11.986580916999628,20.936140060424805,-3.7288527488708496,-14.995147705078125,0.19901567697525024,2.2933783531188965,-0.037640415132045746,0.0,0.0,0.0,1.6745227228279569,70,255,255,255
352,12.019026438999845,20.949613571166992,-3.658627986907959,-14.998703002929688,0.15604524314403534,2.325913906097412,-0.035802118480205536,0.0,0.0,0.0,1.6786500898853616,70,255,255,255
353,12.055938782999874,20.961584091186523,-3.587191581726074,-15.001434326171875,0.1465647667646408,2.3548996448516846,-0.01337455678731203,0.0,0.0,0.0,1.6835902537074585,70,255,255,255
354,12.088644703999762,20.972740173339844,-3.514389753341675,-15.003982543945312,0.13192816078662872,2.382692337036133,-0.013574028387665749,0.0,0.0,0.0,1.686730386948771,70,255,255,255
355,12.120958541999698,20.98204231262207,-3.440223455429077,-15.006362915039062,0.08947375416755676,2.4232208728790283,-0.027972253039479256,0.0,0.0,0.0,1.692560179733009,70,255,255,255
356,12.157706017999772,20.99778938293457,-3.349424362182617,-15.0072021484375,0.07639142125844955,2.466038942337036,-0.026587586849927902,0.0,0.0,0.0,1.698020592074053,70,255,255,255
357,12.19051046300001,21.009328842163086,-3.274928569793701,-15.008056640625,0.0947287529706955,2.4986627101898193,-0.023645669221878052,0.0,0.0,0.0,1.703639595658011,70,255,255,255
358,12.223027686000023,21.020259857177734,-3.198847770690918,-15.008834838867188,0.10066387057304382,2.5372262001037598,-0.02324393391609192,0.0,0.0,0.0,1.7065198043769318,70,255,255,255
359,12.260144820999813,21.03474998474121,-3.1019527912139893,-15.009796142578125,0.0815998911857605,2.574083089828491,-0.027650678530335426,0.0,0.0,0.0,1.712711387595257,70,255,255,255
360,12.292258193999714,21.043346405029297,-3.042849063873291,-15.010513305664062,0.06865192949771881,2.595329999923706,-0.030803488567471504,0.0,0.0,0.0,1.7153286091565325,70,255,255,255
361,12.32562204099986,21.053451538085938,-2.9628653526306152,-15.011764526367188,0.04445177689194679,2.6177966594696045,-0.033575549721717834,0.0,0.0,0.0,1.7207132545645636,70,255,255,255
362,12.36151298599998,21.064353942871094,-2.8615314960479736,-15.013671875,0.021626567468047142,2.6437180042266846,-0.04790852591395378,0.0,0.0,0.0,1.7250604655699544,70,255,255,255
363,12.393983489999755,21.074026107788086,-2.779205322265625,-15.016220092773438,0.04186169058084488,2.670205593109131,-0.049338147044181824,0.0,0.0,0.0,1.7278694347297157,70,255,255,255
364,12.426063127999896,21.083269119262695,-2.6958212852478027,-15.019210815429688,0.012042408809065819,2.6890053749084473,-0.04079362377524376,0.0,0.0,0.0,1.7329060049832734,70,255,255,255
365,12.462821875999907,21.091054916381836,-2.6113598346710205,-15.021484375,0.008427665568888187,2.7146151065826416,-0.020973732694983482,0.0,0.0,0.0,1.7378329861579744,70,255,255,255
366,12.49560455999972,21.097787857055664,-2.525975465774536,-15.023574829101562,-0.005195979494601488,2.7375435829162598,-0.030961457639932632,0.0,0.0,0.0,1.7402629874946174,70,255,255,255
367,12.52801800899988,21.10437774658203,-2.4401180744171143,-15.02252197265625,-0.018959278240799904,2.7577812671661377,-0.0279507078230381,0.0,0.0,0.0,1.7448713214448903,70,255,255,255
368,12.564652073999696,21.111787796020508,-2.331815719604492,-15.020736694335938,-0.04207838699221611,2.7759783267974854,-0.044449444860219955,0.0,0.0,0.0,1.749903630640704,70,255,255,255
369,12.597187329999997,21.116474151611328,-2.2442896366119385,-15.02008056640625,-0.05274472013115883,2.792346239089966,-0.041798047721385956,0.0,0.0,0.0,1.7518988709293914,70,255,255,255
370,12.62944202699964,21.12191390991211,-2.156583309173584,-15.019607543945312,-0.033707693219184875,2.812685489654541,-0.03173248469829559,0.0,0.0,0.0,1.756280569870899,70,255,255,255
371,12.666488192999623,21.130956649780273,-2.0696253776550293,-15.020370483398438,-0.05621020123362541,2.8327486515045166,-0.03953207656741142,0.0,0.0,0.0,1.7604193885209911,70,255,255,255
372,12.698753340999701,21.138463973999023,-1.9815336465835571,-15.0218505859375,-0.04555021971464157,2.8567616939544678,-0.041364122182130814,0.0,0.0,0.0,1.764853551735973,70,255,255,255
373,12.731098895999821,21.1468448638916,-1.8701860904693604,-15.023223876953125,-0.05449627712368965,2.8705856800079346,-0.016880184412002563,0.0,0.0,0.0,1.766419889931103,70,255,255,255
374,12.767709132999698,21.154829025268555,-1.7805633544921875,-15.023849487304688,-0.02361878752708435,2.9010097980499268,-0.023408036679029465,0.0,0.0,0.0,1.7700287395242695,70,255,255,255
375,12.801144281999768,21.16383934020996,-1.6905561685562134,-15.0240478515625,-0.048131123185157776,2.911099672317505,-0.01400082465261221,0.0,0.0,0.0,1.7739407900075412,70,255,255,255
376,12.833346341999913,21.171003341674805,-1.6000868082046509,-15.0245361328125,-0.0655485987663269,2.9149975776672363,-0.027250418439507484,0.0,0.0,0.0,1.7758860960257896,70,255,255,255
377,12.869749660999787,21.176639556884766,-1.509002685546875,-15.025497436523438,-0.10348348319530487,2.9207937717437744,-0.03408374264836311,0.0,0.0,0.0,1.7804771194289772,70,255,255,255
378,12.902306464999583,21.18304443359375,-1.417778730392456,-15.026473999023438,-0.13181251287460327,2.914044141769409,-0.013544765301048756,0.0,0.0,0.0,1.7820044423141377,70,255,255,255
379,12.93476368599977,21.188732147216797,-1.3264116048812866,-15.02667236328125,-0.1459706872701645,2.913257598876953,0.006274493411183357,0.0,0.0,0.0,1.7857156904512177,70,255,255,255
380,12.971497271999851,21.195077896118164,-1.211521029472351,-15.026641845703125,-0.09832006692886353,2.927800178527832,0.0075075263157486916,0.0,0.0,0.0,1.78967328098913,70,255,255,255
381,13.003916814999684,21.199779510498047,-1.1190412044525146,-15.026626586914062,-0.09587427228689194,2.933776378631592,0.019298851490020752,0.0,0.0,0.0,1.7916733149677795,70,255,255,255
382,13.036056938999991,21.208345413208008,-1.0279133319854736,-15.021697998046875,-0.1255882829427719,2.931403160095215,0.0329391211271286,0.0,0.0,0.0,1.7952715119165854,70,255,255,255
383,13.072866251999585,21.21550178527832,-0.936229944229126,-15.01776123046875,-0.14277677237987518,2.936959743499756,0.01009350921958685,0.0,0.0,0.0,1.7993683857795089,70,255,255,255
384,13.10546562699983,21.220354080200195,-0.844254732131958,-15.014572143554688,-0.1661548912525177,2.936440944671631,0.015038587152957916,0.0,0.0,0.0,1.8033624616243553,70,255,255,255
385,13.15619182499995,21.224470138549805,-0.7517688870429993,-15.011917114257812,-0.16644886136054993,2.944674015045166,0.003082714043557644,0.0,0.0,0.0,1.805321083448054,70,255,255,255
386,13.192657878999853,21.232826232910156,-0.6363250613212585,-15.011093139648438,-0.18582434952259064,2.9426918029785156,0.004370320588350296,0.0,0.0,0.0,1.8080598783130915,70,255,255,255
387,13.236355820999961,21.237714767456055,-0.5436733961105347,-15.01043701171875,-0.18991486728191376,2.952453851699829,0.0054183052852749825,0.0,0.0,0.0,1.8080598783130915,70,255,255,255
388,13.274363124999581,21.240650177001953,-0.45086783170700073,-15.010040283203125,-0.21946783363819122,2.9504194259643555,-0.007114659994840622,0.0,0.0,0.0,1.809165223323529,70,255,255,255
389,13.310007902999587,21.245027542114258,-0.35892489552497864,-15.010833740234375,-0.2185927927494049,2.9426159858703613,0.020321277901530266,0.0,0.0,0.0,1.809165223323529,70,255,255,255
390,13.348474184999759,21.250099182128906,-0.2683676779270172,-15.01220703125,-0.21663938462734222,2.9360511302948,0.024368630722165108,0.0,0.0,0.0,1.8112038731379845,70,255,255,255
391,13.367195013999662,21.25432586669922,-0.1776559054851532,-15.013198852539062,-0.21154598891735077,2.9255008697509766,0.03851770609617233,0.0,0.0,0.0,1.8112038731379845,70,255,255,255
392,13.384721108999656,21.257715225219727,-0.06379079073667526,-15.014083862304688,-0.23431476950645447,2.9217312335968018,0.039580050855875015,0.0,0.0,0.0,1.8173572399946671,70,255,255,255
393,13.415685198999654,21.263137817382812,0.026849415153265,-15.01568603515625,-0.21968653798103333,2.922631025314331,0.03194126859307289,0.0,0.0,0.0,1.8305697147947682,70,255,255,255
394,13.447922004999782,21.269033432006836,0.1174669861793518,-15.01751708984375,-0.21454080939292908,2.9114151000976562,0.03177556023001671,0.0,0.0,0.0,1.8336804201060353,70,255,255,255
395,13.48440460799975,21.273345947265625,0.20818690955638885,-15.019973754882812,-0.22850917279720306,2.9130263328552246,-0.004296093713492155,0.0,0.0,0.0,1.8377529260449845,70,255,255,255
396,13.51691934199971,21.27584457397461,0.29917383193969727,-15.023300170898438,-0.25778958201408386,2.908961057662964,-0.05102463811635971,0.0,0.0,0.0,1.8408567071374173,70,255,255,255
397,13.549377411000023,21.278213500976562,0.38857847452163696,-15.029876708984375,-0.2817692458629608,2.902027130126953,-0.09762304276227951,0.0,0.0,0.0,1.842713596207475,70,255,255,255
398,13.585910483999669,21.28087615966797,0.4998703896999359,-15.039108276367188,-0.24392829835414886,2.892167806625366,-0.09030476212501526,0.0,0.0,0.0,1.8463642574297556,70,255,255,255
399,13.618532967999727,21.282699584960938,0.5892270803451538,-15.045730590820312,-0.22885754704475403,2.892033338546753,-0.08833186328411102,0.0,0.0,0.0,1.8481493743084358,70,255,255,255
400,13.651137143999676,21.286096572875977,0.6786808371543884,-15.050811767578125,-0.2128715068101883,2.880873203277588,-0.07311981171369553,0.0,0.0,0.0,1.8516945743515494,70,255,255,255
401,13.68761233899977,21.293190002441406,0.7674369215965271,-15.051681518554688,-0.18547935783863068,2.8696460723876953,-0.02754591964185238,0.0,0.0,0.0,1.8560646885423149,70,255,255,255
402,13.720246168999893,21.299562454223633,0.8561607003211975,-15.0513916015625,-0.17111603915691376,2.857861280441284,-0.001270472421310842,0.0,0.0,0.0,1.8616898173967802,70,255,255,255
403,13.752815065999584,21.304824829101562,0.9446659684181213,-15.050399780273438,-0.17782726883888245,2.8394575119018555,0.02607646770775318,0.0,0.0,0.0,1.863951773268639,70,255,255,255
404,13.789241801999651,21.312877655029297,1.0538383722305298,-15.048995971679688,-0.19851289689540863,2.804457426071167,0.06639579683542252,0.0,0.0,0.0,1.8688172354221593,70,255,255,255
405,13.822384101999887,21.321550369262695,1.139922857284546,-15.048233032226562,-0.21451152861118317,2.798790693283081,0.0761813223361969,0.0,0.0,0.0,1.8733395492692229,70,255,255,255
406,13.854597527999886,21.328123092651367,1.2261995077133179,-15.047088623046875,-0.26514509320259094,2.7767703533172607,0.08209315687417984,0.0,0.0,0.0,1.8760293419702028,70,255,255,255
407,13.891164151999874,21.33189582824707,1.3122907876968384,-15.045974731445312,-0.28904303908348083,2.7682695388793945,0.06419581174850464,0.0,0.0,0.0,1.8807704345008165,70,255,255,255
408,13.923979202999817,21.33833885192871,1.3981802463531494,-15.044235229492188,-0.31112655997276306,2.7653391361236572,0.07469748705625534,0.0,0.0,0.0,1.8829281276159986,70,255,255,255
409,13.956016803999773,21.34381675720215,1.4840480089187622,-15.0416259765625,-0.3507216274738312,2.7502238750457764,0.08071767538785934,0.0,0.0,0.0,1.8877516449823502,70,255,255,255
410,13.99257270399994,21.347042083740234,1.5913445949554443,-15.038040161132812,-0.3854551911354065,2.7470202445983887,0.09612969309091568,0.0,0.0,0.0,1.8920694280576955,70,255,255,255
411,14.02512557099999,21.34677505493164,1.6773163080215454,-15.035507202148438,-0.42933815717697144,2.7285852432250977,0.07791923731565475,0.0,0.0,0.0,1.8943966313762612,70,255,255,255
412,14.05767537499969,21.3497314453125,1.7639925479888916,-15.032791137695312,-0.4158686697483063,2.736406087875366,0.06767973303794861,0.0,0.0,0.0,1.8991054996576848,70,255,255,255
413,14.094218088999696,21.350900650024414,1.8509806394577026,-15.030654907226562,-0.4369620680809021,2.733135223388672,0.05996905639767647,0.0,0.0,0.0,1.9040001234251416,70,255,255,255
414,14.126687942999979,21.350112915039062,1.9380980730056763,-15.028884887695312,-0.44632861018180847,2.7323126792907715,0.07098782807588577,0.0,0.0,0.0,1.9065663454515418,70,255,255,255
415,14.1594647969996,21.348037719726562,2.0253915786743164,-15.026321411132812,-0.44376805424690247,2.736236572265625,0.0791318491101265,0.0,0.0,0.0,1.910909961189461,70,255,255,255
416,14.19594043799998,21.35250473022461,2.132401943206787,-15.019332885742188,-0.4680664539337158,2.709526777267456,0.10306623578071594,0.0,0.0,0.0,1.9150775419793262,70,255,255,255
417,14.228391289999763,21.353286743164062,2.217723846435547,-15.01397705078125,-0.4880824089050293,2.706040143966675,0.07699364423751831,0.0,0.0,0.0,1.9174032805592924,70,255,255,255
418,14.26100035599984,21.35219383239746,2.303330659866333,-15.0093994140625,-0.49804413318634033,2.707077980041504,0.07527773082256317,0.0,0.0,0.0,1.9221246656978392,70,255,255,255
419,14.297643461000007,21.351964950561523,2.3882296085357666,-15.004501342773438,-0.5214235782623291,2.680767059326172,0.09970646351575851,0.0,0.0,0.0,1.9263678802626625,70,255,255,255
420,14.330091601999811,21.351747512817383,2.472611427307129,-14.999786376953125,-0.5433120131492615,2.6892788410186768,0.08090558648109436,0.0,0.0,0.0,1.9286450161527349,70,255,255,255
421,14.362596151999696,21.34869384765625,2.557098865509033,-14.995941162109375,-0.6013965010643005,2.666207790374756,0.066669762134552,0.0,0.0,0.0,1.9333490907441964,70,255,255,255
422,14.398998280999876,21.340538024902344,2.6620993614196777,-14.991607666015625,-0.6534334421157837,2.6487488746643066,0.05668171867728233,0.0,0.0,0.0,1.9378072224089888,70,255,255,255
423,14.431458639999619,21.336027145385742,2.7451064586639404,-14.991806030273438,-0.6598036885261536,2.6434202194213867,0.04152592644095421,0.0,0.0,0.0,1.9403436170311803,70,255,255,255
424,14.46401322299971,21.331378936767578,2.8279004096984863,-14.992965698242188,-0.6963393092155457,2.628910779953003,0.040170926600694656,0.0,0.0,0.0,1.9450663337502725,70,255,255,255
425,14.500553174999823,21.32290267944336,2.910259246826172,-14.993850708007812,-0.7467482686042786,2.6142332553863525,0.04610396549105644,0.0,0.0,0.0,1.949837520001204,70,255,255,255
426,14.53321823999977,21.31289291381836,2.992920160293579,-14.994827270507812,-0.726912260055542,2.6212778091430664,0.031640466302633286,0.0,0.0,0.0,1.954413896018396,70,255,255,255
427,14.565412856999956,21.308151245117188,3.0768423080444336,-14.996002197265625,-0.7382445335388184,2.6263535022735596,0.011791507713496685,0.0,0.0,0.0,1.9572015598894366,70,255,255,255
428,14.602282694999758,21.301898956298828,3.1821820735931396,-14.997650146484375,-0.7708710432052612,2.6129064559936523,0.01941675879061222,0.0,0.0,0.0,1.9615523661622989,70,255,255,255
429,14.634828611999637,21.293556213378906,3.266463279724121,-14.9991455078125,-0.7920492887496948,2.618220806121826,0.0035655770916491747,0.0,0.0,0.0,1.9669103799594294,70,255,255,255
430,14.667323795999891,21.284372329711914,3.350545883178711,-15.001266479492188,-0.8214985728263855,2.6033146381378174,0.01594003103673458,0.0,0.0,0.0,1.9693980387336725,70,255,255,255
431,14.704070277000028,21.277877807617188,3.434242010116577,-15.004470825195312,-0.8280846476554871,2.591770887374878,0.016947956755757332,0.0,0.0,0.0,1.9741011812187523,70,255,255,255
432,14.73659467599964,21.268653869628906,3.5177533626556396,-15.008193969726562,-0.8574820160865784,2.592188835144043,-0.027840977534651756,0.0,0.0,0.0,1.9764514208807473,70,255,255,255
433,14.76901681199979,21.256956100463867,3.60125732421875,-15.0120849609375,-0.8529337644577026,2.595273733139038,-0.010373338125646114,0.0,0.0,0.0,1.9811737381256758,70,255,255,255
434,14.806053041999803,21.2432861328125,3.7057957649230957,-15.014785766601562,-0.9030797481536865,2.568751573562622,0.019810860976576805,0.0,0.0,0.0,1.985907373805237,70,255,255,255
435,14.838171445999706,21.23389434814453,3.7896478176116943,-15.015365600585938,-0.9020754098892212,2.569211959838867,0.034430816769599915,0.0,0.0,0.0,1.9881863739080723,70,255,255,255
436,14.870737735999683,21.222837448120117,3.873427629470825,-15.015182495117188,-0.8948131203651428,2.5728063583374023,0.04273105040192604,0.0,0.0,0.0,1.9926979019527211,70,255,255,255
437,14.90774921000002,21.20926284790039,3.957050085067749,-15.014984130859375,-0.946060061454773,2.5584805011749268,0.044240161776542664,0.0,0.0,0.0,1.9982400733392305,70,255,255,255
438,14.940280454000003,21.199796676635742,4.0412397384643555,-15.012283325195312,-0.9748641848564148,2.5488269329071045,0.04963017627596855,0.0,0.0,0.0,2.0027617213960216,70,255,255,255
439,14.972515137999835,21.189359664916992,4.124909400939941,-15.008865356445312,-0.9833799600601196,2.5401625633239746,0.042923130095005035,0.0,0.0,0.0,2.005577881090726,70,255,255,255
440,15.00985233099982,21.17369842529297,4.229247093200684,-15.0052490234375,-0.9800071716308594,2.535898208618164,0.03154311329126358,0.0,0.0,0.0,2.0098832804670024,70,255,255,255
441,15.042023048999908,21.15871810913086,4.31249475479126,-15.0030517578125,-0.9944484233856201,2.5367681980133057,0.009678524918854237,0.0,0.0,0.0,2.012461486718308,70,255,255,255
442,15.074400750999757,21.150165557861328,4.399710178375244,-15.000167846679688,-1.0032912492752075,2.5358834266662598,0.0049311756156384945,0.0,0.0,0.0,2.016349435593715,70,255,255,255
443,15.111216898999828,21.139068603515625,4.48660135269165,-14.997817993164062,-1.0060300827026367,2.547400951385498,-0.016513574868440628,0.0,0.0,0.0,2.0212889336255393,70,255,255,255
444,15.143943191999824,21.125431060791016,4.573247909545898,-14.996810913085938,-1.013717532157898,2.5560901165008545,-0.03034794144332409,0.0,0.0,0.0,2.0235594116128865,70,255,255,255
445,15.175996544999634,21.110010147094727,4.659590721130371,-14.99591064453125,-1.0099802017211914,2.5602476596832275,-0.025967074558138847,0.0,0.0,0.0,2.0285286038908654,70,255,255,255
446,15.213065773999915,21.098814010620117,4.770831108093262,-14.999847412109375,-1.0357468128204346,2.543022632598877,-0.009454897604882717,0.0,0.0,0.0,2.0331832768441056,70,255,255,255
447,15.245407319999686,21.08673095703125,4.858903408050537,-15.002517700195312,-1.0444239377975464,2.5405800342559814,0.005972858518362045,0.0,0.0,0.0,2.0357361830650555,70,255,255,255
448,15.277803459999632,21.072126388549805,4.946108818054199,-15.004196166992188,-1.0633563995361328,2.521348237991333,0.03218236565589905,0.0,0.0,0.0,2.0402913869515817,70,255,255,255
449,15.314837465999972,21.058792114257812,5.032575607299805,-15.004486083984375,-1.0785084962844849,2.514983654022217,0.016570694744586945,0.0,0.0,0.0,2.0447300775404167,70,255,255,255
450,15.347365099999934,21.047027587890625,5.119024276733398,-15.004638671875,-1.0905463695526123,2.5105929374694824,0.009835250675678253,0.0,0.0,0.0,2.046889634868362,70,255,255,255
451,15.379868075999639,21.032302856445312,5.204647064208984,-15.004776000976562,-1.1123733520507812,2.5032308101654053,0.005432680249214172,0.0,0.0,0.0,2.0515102193596495,70,255,255,255
452,15.416365704999862,21.010398864746094,5.31063175201416,-15.00518798828125,-1.1246576309204102,2.487321376800537,0.004600458778440952,0.0,0.0,0.0,2.056358637282193,70,255,255,255
453,15.448826962999647,20.997356414794922,5.394807815551758,-15.004592895507812,-1.1808274984359741,2.4504542350769043,0.022305335849523544,0.0,0.0,0.0,2.060982550724843,70,255,255,255
454,15.481200788000024,20.982751846313477,5.477875232696533,-15.003494262695312,-1.2120219469070435,2.434645891189575,0.03288865089416504,0.0,0.0,0.0,2.0630635448006314,70,255,255,255
455,15.51808525999968,20.964725494384766,5.560060977935791,-15.002365112304688,-1.2420284748077393,2.417302370071411,0.030285818502306938,0.0,0.0,0.0,2.067383591562903,70,255,255,255
456,15.55075784399969,20.94377326965332,5.6416015625,-15.001785278320312,-1.2634057998657227,2.4213571548461914,0.007088203448802233,0.0,0.0,0.0,2.0715441149758798,70,255,255,255
457,15.583001955999862,20.927616119384766,5.722699165344238,-15.00177001953125,-1.2829145193099976,2.425748586654663,0.0036582208704203367,0.0,0.0,0.0,2.073735630236906,70,255,255,255
458,15.620133231999716,20.905397415161133,5.8230156898498535,-15.001953125,-1.3225669860839844,2.4015676975250244,0.00452993530780077,0.0,0.0,0.0,2.077128097991503,70,255,255,255
459,15.652359023999907,20.884639739990234,5.903008460998535,-15.002761840820312,-1.3283467292785645,2.406743049621582,-0.019519122317433357,0.0,0.0,0.0,2.0807031254388257,70,255,255,255
460,15.684829741999692,20.863616943359375,5.982980728149414,-15.003997802734375,-1.312389612197876,2.4051859378814697,-0.016344131901860237,0.0,0.0,0.0,2.0826853162381718,70,255,255,255
461,15.72219541100003,20.845693588256836,6.063564777374268,-15.005950927734375,-1.3538007736206055,2.3859357833862305,-0.020856451243162155,0.0,0.0,0.0,2.086227586804086,70,255,255,255
462,15.754230250999626,20.824377059936523,6.14328670501709,-15.007965087890625,-1.3396241664886475,2.393744945526123,-0.012781786732375622,0.0,0.0,0.0,2.0898602716890085,70,255,255,255
463,15.786787569999888,20.801204681396484,6.222928047180176,-15.009185791015625,-1.3634322881698608,2.3841583728790283,0.0013355981791391969,0.0,0.0,0.0,2.091411429865925,70,255,255,255
464,15.823943645999861,20.7728328704834,6.323516368865967,-15.012298583984375,-1.35675847530365,2.385591983795166,0.015339053235948086,0.0,0.0,0.0,2.09620991351803,70,255,255,255
465,15.856299621999824,20.75251579284668,6.40502405166626,-15.017166137695312,-1.3646647930145264,2.375596046447754,0.015290427953004837,0.0,0.0,0.0,2.100276294186472,70,255,255,255
466,15.888869408999653,20.729930877685547,6.485933303833008,-15.021209716796875,-1.3498238325119019,2.380354642868042,0.028160013258457184,0.0,0.0,0.0,2.102773806656748,70,255,255,255
467,15.926311858999725,20.705717086791992,6.566681385040283,-15.024795532226562,-1.3422349691390991,2.3831777572631836,0.010898803360760212,0.0,0.0,0.0,2.1067279350852433,70,255,255,255
468,15.958614364999903,20.68638801574707,6.646766662597656,-15.026947021484375,-1.3467270135879517,2.3736679553985596,0.03431102633476257,0.0,0.0,0.0,2.1108828658599306,70,255,255,255
469,15.990973953999855,20.666336059570312,6.726191520690918,-15.028228759765625,-1.3599607944488525,2.370293378829956,0.03493170067667961,0.0,0.0,0.0,2.113334971433621,70,255,255,255
470,16.028068668999822,20.637596130371094,6.824028015136719,-15.0291748046875,-1.3833706378936768,2.3240890502929688,0.05141272023320198,0.0,0.0,0.0,2.1166538027840778,70,255,255,255
471,16.060725783999715,20.61194610595703,6.901245594024658,-15.029205322265625,-1.3774994611740112,2.3206090927124023,0.054044175893068314,0.0,0.0,0.0,2.118519213969624,70,255,255,255
472,16.092790968999907,20.59661102294922,6.980790138244629,-15.028091430664062,-1.3718973398208618,2.305927038192749,0.05088921636343002,0.0,0.0,0.0,2.122464953440685,70,255,255,255
473,16.13042362399983,20.578598022460938,7.059499740600586,-15.026718139648438,-1.3752468824386597,2.291752338409424,0.08146414905786514,0.0,0.0,0.0,2.1268542423912993,70,255,255,255
474,16.162648843999705,20.5579776763916,7.137565612792969,-15.0244140625,-1.3693361282348633,2.3003289699554443,0.09384644776582718,0.0,0.0,0.0,2.130784402369984,70,255,255,255
475,16.195026293999945,20.534908294677734,7.215551853179932,-15.02203369140625,-1.3708605766296387,2.3123648166656494,0.08582910895347595,0.0,0.0,0.0,2.132976450263228,70,255,255,255
476,16.232737661999636,20.514591217041016,7.316446304321289,-15.022445678710938,-1.3931652307510376,2.298419713973999,0.08193257451057434,0.0,0.0,0.0,2.1369608055700953,70,255,255,255
477,16.264766654999676,20.49534034729004,7.396498680114746,-15.022628784179688,-1.368820071220398,2.311595916748047,0.08503594994544983,0.0,0.0,0.0,2.141125590040816,70,255,255,255
478,16.29706428999998,20.473875045776367,7.476315498352051,-15.022552490234375,-1.3796826601028442,2.319145441055298,0.07114468514919281,0.0,0.0,0.0,2.1430474602414717,70,255,255,255
479,16.33431290899989,20.45389175415039,7.557098388671875,-15.023406982421875,-1.381913423538208,2.3254926204681396,0.05910918116569519,0.0,0.0,0.0,2.147415976535583,70,255,255,255
480,16.36663660999966,20.436256408691406,7.638709545135498,-15.02435302734375,-1.3780709505081177,2.320824384689331,0.07574236392974854,0.0,0.0,0.0,2.149596306520031,70,255,255,255
481,16.39879383399966,20.415306091308594,7.719516277313232,-15.024871826171875,-1.3931684494018555,2.319866418838501,0.06514798104763031,0.0,0.0,0.0,2.154220219962681,70,255,255,255
482,16.43643684599965,20.386066436767578,7.819385528564453,-15.025100708007812,-1.3728375434875488,2.3136067390441895,0.07802852243185043,0.0,0.0,0.0,2.1583073732876255,70,255,255,255
483,16.468852647999938,20.36648178100586,7.899366855621338,-15.025039672851562,-1.3704235553741455,2.3245489597320557,0.06462877243757248,0.0,0.0,0.0,2.162045785667824,70,255,255,255
484,16.500839010999698,20.34568977355957,7.978564262390137,-15.02410888671875,-1.402477502822876,2.2971510887145996,0.10701656341552734,0.0,0.0,0.0,2.1640480833334004,70,255,255,255
485,16.538132885999858,20.321611404418945,8.057032585144043,-15.022415161132812,-1.4320710897445679,2.29427433013916,0.11397287249565125,0.0,0.0,0.0,2.1679786427862484,70,255,255,255
486,16.57105952799975,20.294221878051758,8.13426685333252,-15.02069091796875,-1.4631098508834839,2.2588889598846436,0.09905193001031876,0.0,0.0,0.0,2.1719349017436156,70,255,255,255
487,16.602807026999926,20.260766983032227,8.229036331176758,-15.020462036132812,-1.5075693130493164,2.230597734451294,0.06769717484712601,0.0,0.0,0.0,2.173809367676868,70,255,255,255
488,16.64032781099968,20.231830596923828,8.304081916809082,-15.020553588867188,-1.5157065391540527,2.221435070037842,0.07113869488239288,0.0,0.0,0.0,2.1777003791875282,70,255,255,255
489,16.673119958999905,20.200336456298828,8.378244400024414,-15.02081298828125,-1.539137840270996,2.2087042331695557,0.052767250686883926,0.0,0.0,0.0,2.179700546324232,70,255,255,255
490,16.704608338999606,20.16886329650879,8.452346801757812,-15.021453857421875,-1.542685627937317,2.2194457054138184,0.023106947541236877,0.0,0.0,0.0,2.183829244962182,70,255,255,255
491,16.741778034999697,20.141860961914062,8.52614688873291,-15.0213623046875,-1.5533267259597778,2.2086281776428223,0.038934823125600815,0.0,0.0,0.0,2.187107729422124,70,255,255,255
492,16.77430409999988,20.11229133605957,8.599475860595703,-15.020706176757812,-1.5707792043685913,2.1966302394866943,0.0632079690694809,0.0,0.0,0.0,2.189587531871151,70,255,255,255
493,16.80656330199963,20.080217361450195,8.672392845153809,-15.01995849609375,-1.572778582572937,2.197627067565918,0.05505162477493286,0.0,0.0,0.0,2.193793595338768,70,255,255,255
494,16.84358875299995,20.040964126586914,8.763715744018555,-15.018600463867188,-1.569830298423767,2.1914196014404297,0.038588788360357285,0.0,0.0,0.0,2.198386083480555,70,255,255,255
495,16.877054074999705,20.011791229248047,8.837573051452637,-15.017608642578125,-1.5904275178909302,2.184164524078369,0.020281946286559105,0.0,0.0,0.0,2.200468941769106,70,255,255,255
496,16.90838673299959,19.979679107666016,8.91067886352539,-15.01666259765625,-1.5995694398880005,2.174534797668457,0.0287784431129694,0.0,0.0,0.0,2.2053794113450484,70,255,255,255
497,16.945642217999648,19.94539451599121,8.983246803283691,-15.015625,-1.6165440082550049,2.1585853099823,0.023285875096917152,0.0,0.0,0.0,2.2100852169912186,70,255,255,255
498,16.9781165229997,19.914762496948242,9.055721282958984,-15.014480590820312,-1.6437195539474487,2.127480983734131,0.023192735388875008,0.0,0.0,0.0,2.2118748612437518,70,255,255,255
499,17.01069521799991,19.883623123168945,9.127448081970215,-15.013031005859375,-1.6484721899032593,2.114821434020996,0.013297687284648418,0.0,0.0,0.0,2.2165796016254857,70,255,255,255
500,17.04765280899983,19.841806411743164,9.216876983642578,-15.011856079101562,-1.6402380466461182,2.1271655559539795,0.013783859089016914,0.0,0.0,0.0,2.2207518429472586,70,255,255,255
501,17.079599639999742,19.80592155456543,9.28795051574707,-15.011306762695312,-1.6514416933059692,2.118731737136841,0.006080670282244682,0.0,0.0,0.0,2.2228518786248403,70,255,255,255
502,17.11218012099971,19.77618408203125,9.358007431030273,-15.013687133789062,-1.6583123207092285,2.111828088760376,-0.01454177312552929,0.0,0.0,0.0,2.2268970871626164,70,255,255,255
503,17.149938866999946,19.743362426757812,9.427419662475586,-15.016891479492188,-1.6874146461486816,2.082770347595215,-0.017803627997636795,0.0,0.0,0.0,2.231759486680883,70,255,255,255
504,17.18194596799958,19.707443237304688,9.495755195617676,-15.019424438476562,-1.7080744504928589,2.0669312477111816,-0.016068443655967712,0.0,0.0,0.0,2.2343780398227033,70,255,255,255
505,17.21428945999969,19.66890525817871,9.563263893127441,-15.021759033203125,-1.7278021574020386,2.038752555847168,0.005347465164959431,0.0,0.0,0.0,2.2387493524359594,70,255,255,255
506,17.251540967999972,19.62936782836914,9.648500442504883,-15.023941040039062,-1.7346853017807007,2.02380108833313,0.019434630870819092,0.0,0.0,0.0,2.242690564533168,70,255,255,255
507,17.28427557499981,19.59469223022461,9.715987205505371,-15.02545166015625,-1.7337617874145508,2.015131950378418,0.024602925404906273,0.0,0.0,0.0,2.247332187997067,70,255,255,255
508,17.316241348999938,19.557538986206055,9.782676696777344,-15.026519775390625,-1.7453604936599731,1.9946961402893066,0.028585558757185936,0.0,0.0,0.0,2.249494408486102,70,255,255,255
509,17.35373985599972,19.523006439208984,9.848639488220215,-15.028167724609375,-1.7545086145401,1.9733389616012573,0.03560921177268028,0.0,0.0,0.0,2.2542489499802207,70,255,255,255
510,17.386311149999983,19.490711212158203,9.913520812988281,-15.029861450195312,-1.7671351432800293,1.944810152053833,0.04342975467443466,0.0,0.0,0.0,2.2592154790971093,70,255,255,255
511,17.41834069999959,19.455707550048828,9.977906227111816,-15.031265258789062,-1.7590537071228027,1.9500727653503418,0.030036553740501404,0.0,0.0,0.0,2.2612011320058727,70,255,255,255
512,17.4552682679996,19.40874481201172,10.057894706726074,-15.033340454101562,-1.7600492238998413,1.9437226057052612,0.012818590737879276,0.0,0.0,0.0,2.2653215748444433,70,255,255,255
513,17.488417379999646,19.374704360961914,10.122095108032227,-15.035446166992188,-1.7327369451522827,1.9577856063842773,0.00870724767446518,0.0,0.0,0.0,2.269859335025829,70,255,255,255
514,17.520522226999674,19.340394973754883,10.186406135559082,-15.037811279296875,-1.731752872467041,1.9468179941177368,0.0018673907034099102,0.0,0.0,0.0,2.2721195598429795,70,255,255,255
515,17.558127271999638,19.304288864135742,10.250412940979004,-15.039871215820312,-1.710036277770996,1.943207025527954,0.014252753928303719,0.0,0.0,0.0,2.2763622417755847,70,255,255,255
516,17.59100265699999,19.265995025634766,10.313801765441895,-15.042022705078125,-1.7203670740127563,1.934767484664917,0.0010788108920678496,0.0,0.0,0.0,2.280345265501907,70,255,255,255
517,17.62263588199994,19.231094360351562,10.379141807556152,-15.0439453125,-1.7521849870681763,1.9112118482589722,-0.011310401372611523,0.0,0.0,0.0,2.2825567544711087,70,255,255,255
518,17.659578249999868,19.186281204223633,10.460911750793457,-15.0462646484375,-1.7436847686767578,1.9199323654174805,-0.00923315342515707,0.0,0.0,0.0,2.2867898490237897,70,255,255,255
519,17.691892492999614,19.147705078125,10.52556324005127,-15.047775268554688,-1.7734911441802979,1.8907450437545776,-0.005403617396950722,0.0,0.0,0.0,2.290401894410264,70,255,255,255
520,17.724899439999717,19.107757568359375,10.58998966217041,-15.0501708984375,-1.7854743003845215,1.8827484846115112,0.00241654459387064,0.0,0.0,0.0,2.2919840784138805,70,255,255,255
521,17.76166816599971,19.070629119873047,10.656707763671875,-15.054794311523438,-1.7925374507904053,1.8703950643539429,0.018786082044243813,0.0,0.0,0.0,2.296280023568287,70,255,255,255
522,17.794169817999773,19.031021118164062,10.722569465637207,-15.058883666992188,-1.809680700302124,1.8628804683685303,0.012683065608143806,0.0,0.0,0.0,2.3002630472946097,70,255,255,255
523,17.827153447,18.988508224487305,10.787140846252441,-15.062789916992188,-1.8295594453811646,1.8492028713226318,0.0019823210313916206,0.0,0.0,0.0,2.3026660175461884,70,255,255,255
524,17.863316785999814,18.935819625854492,10.867700576782227,-15.066940307617188,-1.8294191360473633,1.8277629613876343,0.005706036929041147,0.0,0.0,0.0,2.3061275943310733,70,255,255,255
525,17.895936747999713,18.89612579345703,10.932581901550293,-15.06884765625,-1.812971591949463,1.8284447193145752,0.02022852934896946,0.0,0.0,0.0,2.3108088988952145,70,255,255,255
526,17.92833261099986,18.854799270629883,10.996811866760254,-15.070068359375,-1.7924307584762573,1.8418543338775635,0.021274929866194725,0.0,0.0,0.0,2.3123665818168018,70,255,255,255
527,17.965798578999966,18.81153106689453,11.060399055480957,-15.07110595703125,-1.817975640296936,1.815415859222412,0.01979219913482666,0.0,0.0,0.0,2.316473708849922,70,255,255,255
528,17.998068726999918,18.772430419921875,11.124329566955566,-15.071212768554688,-1.81583833694458,1.8133832216262817,0.03647669777274132,0.0,0.0,0.0,2.320720651840271,70,255,255,255
529,18.030152888999964,18.732749938964844,11.18762493133545,-15.0709228515625,-1.8450493812561035,1.7883737087249756,0.032457947731018066,0.0,0.0,0.0,2.323659982735392,70,255,255,255
530,18.067416132999824,18.679779052734375,11.265674591064453,-15.070465087890625,-1.8399876356124878,1.788918375968933,0.03885854035615921,0.0,0.0,0.0,2.3269202245418668,70,255,255,255
531,18.10015532999978,18.635297775268555,11.327535629272461,-15.07061767578125,-1.8492892980575562,1.7905360460281372,-0.001751370495185256,0.0,0.0,0.0,2.3293005579241797,70,255,255,255
532,18.132392188999802,18.596651077270508,11.388957977294922,-15.074127197265625,-1.8554786443710327,1.786360502243042,-0.002461436204612255,0.0,0.0,0.0,2.3332319163253548,70,255,255,255
533,18.16992941599983,18.555240631103516,11.449743270874023,-15.077407836914062,-1.8839224576950073,1.774849534034729,-0.004633248317986727,0.0,0.0,0.0,2.3375686078444398,70,255,255,255
534,18.202420979999715,18.510677337646484,11.509510040283203,-15.080368041992188,-1.912978172302246,1.7475368976593018,0.00854150578379631,0.0,0.0,0.0,2.3416501685310953,70,255,255,255
535,18.234211870999843,18.46347999572754,11.568069458007812,-15.082656860351562,-1.9391909837722778,1.7178924083709717,0.02749083936214447,0.0,0.0,0.0,2.343795078473045,70,255,255,255
536,18.272286082999926,18.40919303894043,11.639302253723145,-15.085357666015625,-1.9468616247177124,1.7032297849655151,0.0350298173725605,0.0,0.0,0.0,2.348506210441395,70,255,255,255
537,18.304096705999655,18.36293601989746,11.695212364196777,-15.087188720703125,-1.9443467855453491,1.6898554563522339,0.055066753178834915,0.0,0.0,0.0,2.350015157515034,70,255,255,255
538,18.336412913999993,18.315109252929688,11.750581741333008,-15.08819580078125,-1.9482405185699463,1.6653646230697632,0.05120226368308067,0.0,0.0,0.0,2.3541209529676093,70,255,255,255
539,18.376595642999746,18.258583068847656,11.82172966003418,-15.087677001953125,-1.950356125831604,1.6687816381454468,0.07244031131267548,0.0,0.0,0.0,2.3576222108527363,70,255,255,255
540,18.405932220999603,18.225250244140625,11.865031242370605,-15.086654663085938,-1.9514214992523193,1.6745576858520508,0.059610962867736816,0.0,0.0,0.0,2.362118159405008,70,255,255,255
541,18.43810253499987,18.178865432739258,11.922566413879395,-15.085128784179688,-1.9574828147888184,1.6827741861343384,0.07996631413698196,0.0,0.0,0.0,2.364140830252923,70,255,255,255
542,18.476735927999925,18.118671417236328,11.994922637939453,-15.082412719726562,-1.9382883310317993,1.7035235166549683,0.0959969088435173,0.0,0.0,0.0,2.3678210525633037,70,255,255,255
543,18.50761644699969,18.0751895904541,12.05571460723877,-15.081405639648438,-1.8914093971252441,1.7523225545883179,0.11783920228481293,0.0,0.0,0.0,2.3698607676421957,70,255,255,255
544,18.540511566999612,18.031898498535156,12.117409706115723,-15.080917358398438,-1.902409553527832,1.7514089345932007,0.10134339332580566,0.0,0.0,0.0,2.3736632290466106,70,255,255,255
545,18.577903117999995,17.986234664916992,12.178170204162598,-15.08056640625,-1.912225604057312,1.7304604053497314,0.10649056732654572,0.0,0.0,0.0,2.377845989854689,70,255,255,255
546,18.6103252959997,17.93824005126953,12.23765754699707,-15.079727172851562,-1.9277070760726929,1.7140077352523804,0.0953015387058258,0.0,0.0,0.0,2.3795874308914917,70,255,255,255
547,18.64245567199987,17.89212989807129,12.298040390014648,-15.07843017578125,-1.951940894126892,1.6872650384902954,0.07711954414844513,0.0,0.0,0.0,2.3835640630311983,70,255,255,255
548,18.679209180999806,17.833538055419922,12.37356185913086,-15.076385498046875,-1.9309879541397095,1.7132176160812378,0.10554971545934677,0.0,0.0,0.0,2.388404358312417,70,255,255,255
549,18.711852051999813,17.78526496887207,12.434308052062988,-15.074676513671875,-1.9219251871109009,1.741029143333435,0.08725091069936752,0.0,0.0,0.0,2.3910725794085677,70,255,255,255
550,18.744204042999627,17.737518310546875,12.49656867980957,-15.072509765625,-1.9310410022735596,1.7437407970428467,0.0946006253361702,0.0,0.0,0.0,2.394301662230289,70,255,255,255
551,18.781252774999757,17.69355010986328,12.562588691711426,-15.069717407226562,-1.9184635877609253,1.7557498216629028,0.0937764048576355,0.0,0.0,0.0,2.3983704397437116,70,255,255,255
552,18.813655883999672,17.64775848388672,12.62795639038086,-15.06695556640625,-1.9308125972747803,1.750508189201355,0.08788879960775375,0.0,0.0,0.0,2.400622142445374,70,255,255,255
553,18.845886485999927,17.60007095336914,12.692487716674805,-15.064422607421875,-1.9164997339248657,1.7579060792922974,0.09050316363573074,0.0,0.0,0.0,2.4057812181090754,70,255,255,255
554,18.883044782999605,17.541440963745117,12.774544715881348,-15.061492919921875,-1.9222830533981323,1.7653788328170776,0.07003386318683624,0.0,0.0,0.0,2.4095288183950347,70,255,255,255
555,18.915294122999967,17.49641227722168,12.842106819152832,-15.059677124023438,-1.9088560342788696,1.7851545810699463,0.04488984867930412,0.0,0.0,0.0,2.4119184728411627,70,255,255,255
556,18.94764192599996,17.449676513671875,12.90892219543457,-15.058197021484375,-1.9144423007965088,1.7835263013839722,0.04195283353328705,0.0,0.0,0.0,2.4165169530954027,70,255,255,255
557,18.9847742879997,17.400697708129883,12.974611282348633,-15.057449340820312,-1.9320448637008667,1.7722206115722656,0.01579834334552288,0.0,0.0,0.0,2.420660565435457,70,255,255,255
558,19.01783278799985,17.35554313659668,13.040888786315918,-15.057769775390625,-1.9406001567840576,1.7635029554367065,0.015779366716742516,0.0,0.0,0.0,2.425501127032785,70,255,255,255
559,19.049799657999756,17.31019401550293,13.106963157653809,-15.057876586914062,-1.931088924407959,1.7784491777420044,0.034006133675575256,0.0,0.0,0.0,2.4273722640146747,70,255,255,255
560,19.087594263000028,17.25079917907715,13.188302993774414,-15.057647705078125,-1.9401761293411255,1.7633291482925415,0.027651675045490265,0.0,0.0,0.0,2.431419736239377,70,255,255,255
561,19.119492720999915,17.200960159301758,13.251947402954102,-15.057769775390625,-1.9554495811462402,1.7495472431182861,0.026636047288775444,0.0,0.0,0.0,2.4331159035376486,70,255,255,255
562,19.15286727800003,17.15707015991211,13.316104888916016,-15.056167602539062,-1.927911400794983,1.756844162940979,0.0431705042719841,0.0,0.0,0.0,2.4376201078892996,70,255,255,255
563,19.217337459999726,17.11146354675293,13.379444122314453,-15.054153442382812,-1.9377033710479736,1.7304702997207642,0.059491198509931564,0.0,0.0,0.0,2.43954743757019,70,255,255,255
564,19.252401559999726,17.06391143798828,13.441597938537598,-15.052413940429688,-1.9393606185913086,1.7314327955245972,0.03426440432667732,0.0,0.0,0.0,2.4423560072557873,70,255,255,255
565,19.282429058999696,17.014848709106445,13.503026962280273,-15.050827026367188,-1.9298280477523804,1.7181124687194824,0.06050123646855354,0.0,0.0,0.0,2.4423560072557873,70,255,255,255
566,19.322501177999584,16.96207618713379,13.582609176635742,-15.05084228515625,-1.924622893333435,1.7038252353668213,0.04089195281267166,0.0,0.0,0.0,2.4442439221525447,70,255,255,255
567,19.355602669999826,16.91747283935547,13.644816398620605,-15.051620483398438,-1.924939751625061,1.6927733421325684,0.03422965854406357,0.0,0.0,0.0,2.4442439221525447,70,255,255,255
568,19.37748505899981,16.87065315246582,13.705711364746094,-15.052169799804688,-1.9281383752822876,1.6860401630401611,0.033488620072603226,0.0,0.0,0.0,2.44664502819136,70,255,255,255
569,19.41281403899984,16.8257999420166,13.766745567321777,-15.05426025390625,-1.9258008003234863,1.6641695499420166,0.04003538936376572,0.0,0.0,0.0,2.448020284578277,70,255,255,255
570,19.450345009999637,16.782455444335938,13.827844619750977,-15.058456420898438,-1.9221711158752441,1.6589841842651367,0.03766849264502525,0.0,0.0,0.0,2.448020284578277,70,255,255,255
571,19.478022786999645,16.73682403564453,13.88747501373291,-15.061798095703125,-1.9321805238723755,1.6322323083877563,0.04393397271633148,0.0,0.0,0.0,2.451049364002133,70,255,255,255
572,19.50529504499991,16.676645278930664,13.960089683532715,-15.065017700195312,-1.9519386291503906,1.6033505201339722,0.043349944055080414,0.0,0.0,0.0,2.4524701604436903,70,255,255,255
573,19.535953405999862,16.62997055053711,14.019624710083008,-15.065109252929688,-1.957472562789917,1.5783294439315796,0.052851952612400055,0.0,0.0,0.0,2.460747531427766,70,255,255,255
574,19.56746568399967,16.582612991333008,14.078534126281738,-15.063873291015625,-1.9664746522903442,1.5488570928573608,0.0612715519964695,0.0,0.0,0.0,2.4727714374333645,70,255,255,255
575,19.603572046999943,16.5329532623291,14.135780334472656,-15.062896728515625,-1.9808974266052246,1.5239228010177612,0.050400279462337494,0.0,0.0,0.0,2.4833338006327277,70,255,255,255
576,19.636319376999836,16.48111343383789,14.191536903381348,-15.062789916992188,-1.9947527647018433,1.516249179840088,0.010486751794815063,0.0,0.0,0.0,2.48509148695218,70,255,255,255
577,19.668672136999703,16.43254852294922,14.249551773071289,-15.065139770507812,-2.006293296813965,1.5129183530807495,-0.019097521901130676,0.0,0.0,0.0,2.487872892394659,70,255,255,255
578,19.70550193500003,16.37105941772461,14.321944236755371,-15.069198608398438,-2.007673740386963,1.5168304443359375,-0.03748476132750511,0.0,0.0,0.0,2.490631394651763,70,255,255,255
579,19.746295321999696,16.319799423217773,14.3785400390625,-15.072311401367188,-2.004193067550659,1.5043057203292847,-0.026884377002716064,0.0,0.0,0.0,2.494902306091923,70,255,255,255
580,19.77204237299975,16.268125534057617,14.435213088989258,-15.074493408203125,-2.001131296157837,1.4980449676513672,-0.02071789838373661,0.0,0.0,0.0,2.496310585676357,70,255,255,255
581,19.80916735899973,16.2180118560791,14.494704246520996,-15.075881958007812,-1.9926096200942993,1.5113707780838013,-0.009539921768009663,0.0,0.0,0.0,2.4995276842731724,70,255,255,255
582,19.844169299999976,16.166593551635742,14.553350448608398,-15.076812744140625,-1.9812220335006714,1.5136630535125732,0.004589281976222992,0.0,0.0,0.0,2.5032923287901085,70,255,255,255
583,19.87749421799981,16.114290237426758,14.611468315124512,-15.076980590820312,-1.953155755996704,1.5438400506973267,0.023714594542980194,0.0,0.0,0.0,2.505281443808289,70,255,255,255
584,19.913027168999633,16.050161361694336,14.685087203979492,-15.076461791992188,-1.9522024393081665,1.5448312759399414,0.02498641610145569,0.0,0.0,0.0,2.508818121735914,70,255,255,255
585,19.945424096999886,16.000280380249023,14.744996070861816,-15.0750732421875,-1.9512004852294922,1.5387252569198608,0.02853875234723091,0.0,0.0,0.0,2.5123369564842357,70,255,255,255
586,19.97921587599967,15.948798179626465,14.803077697753906,-15.073318481445312,-1.9661788940429688,1.4949904680252075,0.04979974031448364,0.0,0.0,0.0,2.514834202638403,70,255,255,255
587,20.01359776499976,15.895297050476074,14.85899543762207,-15.071395874023438,-1.9866002798080444,1.457236409187317,0.05822259187698364,0.0,0.0,0.0,2.5188188242613796,70,255,255,255
588,20.04679320399964,15.846935272216797,14.917367935180664,-15.06768798828125,-2.0029501914978027,1.4409483671188354,0.05101678892970085,0.0,0.0,0.0,2.5228292785469297,70,255,255,255
589,20.079763916999582,15.798419952392578,14.974947929382324,-15.063247680664062,-2.024738073348999,1.4053899049758911,0.06763183325529099,0.0,0.0,0.0,2.5250663338625965,70,255,255,255
590,20.115611333999823,15.734046936035156,15.044220924377441,-15.058197021484375,-2.036052703857422,1.404247522354126,0.0678137019276619,0.0,0.0,0.0,2.5295673424209393,70,255,255,255
591,20.148871152999618,15.680349349975586,15.098159790039062,-15.0538330078125,-2.0509824752807617,1.3869248628616333,0.0898551270365715,0.0,0.0,0.0,2.5322584667024644,70,255,255,255
592,20.182907179999802,15.629258155822754,15.15363597869873,-15.04815673828125,-2.05293345451355,1.4005275964736938,0.10052435845136642,0.0,0.0,0.0,2.5370066166099665,70,255,255,255
593,20.2181059239997,15.576574325561523,15.208181381225586,-15.042495727539062,-2.072132110595703,1.3634626865386963,0.10260073840618134,0.0,0.0,0.0,2.5415161472837977,70,255,255,255
594,20.250843882000026,15.521465301513672,15.260440826416016,-15.037750244140625,-2.0982723236083984,1.3345553874969482,0.06392000615596771,0.0,0.0,0.0,2.5441007451217197,70,255,255,255
595,20.283478097999705,15.464035987854004,15.310667991638184,-15.033554077148438,-2.1245481967926025,1.3036540746688843,0.08454705774784088,0.0,0.0,0.0,2.5488973645610615,70,255,255,255
596,20.319662332000007,15.397201538085938,15.378165245056152,-15.02655029296875,-2.14005708694458,1.2830129861831665,0.09182824939489365,0.0,0.0,0.0,2.553427667891395,70,255,255,255
597,20.352463455999896,15.341498374938965,15.430638313293457,-15.021438598632812,-2.1456289291381836,1.2929184436798096,0.0757519006729126,0.0,0.0,0.0,2.5555070640705293,70,255,255,255
598,20.38573340899984,15.284137725830078,15.482108116149902,-15.016555786132812,-2.1473569869995117,1.2961336374282837,0.08181532472372055,0.0,0.0,0.0,2.5602126034005903,70,255,255,255
599,20.425211086999752,15.216285705566406,15.546512603759766,-15.012176513671875,-2.1702184677124023,1.2643665075302124,0.08461908996105194,0.0,0.0,0.0,2.565350373775571,70,255,255,255
600,20.455533915999695,15.176000595092773,15.584555625915527,-15.010177612304688,-2.1955618858337402,1.2343519926071167,0.07518071681261063,0.0,0.0,0.0,2.5691978426024087,70,255,255,255
601,20.487518521999846,15.119927406311035,15.633543968200684,-15.007522583007812,-2.19960355758667,1.233996033668518,0.08370957523584366,0.0,0.0,0.0,2.571232763991338,70,255,255,255
602,20.528746771999977,15.047643661499023,15.693222999572754,-15.003921508789062,-2.198714256286621,1.2194581031799316,0.07991040498018265,0.0,0.0,0.0,2.5749177799916807,70,255,255,255
603,20.560183222999967,14.991379737854004,15.743316650390625,-15.000564575195312,-2.2094106674194336,1.2023718357086182,0.07209254801273346,0.0,0.0,0.0,2.5773377944742357,70,255,255,255
604,20.590811742999904,14.934643745422363,15.793725967407227,-14.997055053710938,-2.2123630046844482,1.2099469900131226,0.05913664773106575,0.0,0.0,0.0,2.5814063056715497,70,255,255,255
605,20.627932919999694,14.875811576843262,15.84261703491211,-14.994369506835938,-2.2253003120422363,1.190813422203064,0.04202947020530701,0.0,0.0,0.0,2.587026108203835,70,255,255,255
606,20.658656028999758,14.815266609191895,15.8900728225708,-14.991851806640625,-2.2184700965881348,1.201106071472168,0.052782829850912094,0.0,0.0,0.0,2.5912453543188474,70,255,255,255
607,20.69206117399972,14.756406784057617,15.942087173461914,-14.990036010742188,-2.2319343090057373,1.2039592266082764,0.0445491261780262,0.0,0.0,0.0,2.593921564898268,70,255,255,255
608,20.731776831999923,14.681487083435059,16.007238388061523,-14.988967895507812,-2.2370593547821045,1.1887257099151611,0.02537134289741516,0.0,0.0,0.0,2.598582895754234,70,255,255,255
609,20.76150781999968,14.619733810424805,16.05695343017578,-14.988372802734375,-2.248462200164795,1.1705883741378784,0.0008214859990403056,0.0,0.0,0.0,2.603024782136377,70,255,255,255
610,20.794753283999853,14.557774543762207,16.106616973876953,-14.989013671875,-2.2374722957611084,1.1854678392410278,0.02142937108874321,0.0,0.0,0.0,2.6064064640885594,70,255,255,255
611,20.831080282999665,14.497696876525879,16.15839958190918,-14.992233276367188,-2.2330706119537354,1.203433871269226,0.004373751115053892,0.0,0.0,0.0,2.6108097346348966,70,255,255,255
612,20.863233896999645,14.436327934265137,16.208751678466797,-14.994720458984375,-2.2343802452087402,1.1751198768615723,0.04229625687003136,0.0,0.0,0.0,2.6137938066363304,70,255,255,255
613,20.89638273799983,14.373600006103516,16.257450103759766,-14.996429443359375,-2.237985610961914,1.1643351316452026,0.03133497014641762,0.0,0.0,0.0,2.6192237257828928,70,255,255,255
614,20.933129172000008,14.295183181762695,16.317790985107422,-14.998580932617188,-2.248148202896118,1.142728567123413,0.021898634731769562,0.0,0.0,0.0,2.623911155617541,70,255,255,255
615,20.965662251999674,14.233200073242188,16.366701126098633,-14.999954223632812,-2.256258964538574,1.1418933868408203,0.01048294547945261,0.0,0.0,0.0,2.6268142675218367,70,255,255,255
616,20.99795207699981,14.16975212097168,16.414230346679688,-15.001296997070312,-2.265214681625366,1.1275484561920166,0.005393712781369686,0.0,0.0,0.0,2.6313573540254027,70,255,255,255
617,21.034949752999637,14.104840278625488,16.45997428894043,-15.002777099609375,-2.2606377601623535,1.1148707866668701,0.009126096963882446,0.0,0.0,0.0,2.6369643733844557,70,255,255,255
618,21.067606038999656,14.043968200683594,16.509164810180664,-15.005905151367188,-2.2561519145965576,1.118860125541687,0.03117513097822666,0.0,0.0,0.0,2.6391404423111595,70,255,255,255
619,21.099910218999867,13.983104705810547,16.55829429626465,-15.009078979492188,-2.258605480194092,1.1184320449829102,0.02907748520374298,0.0,0.0,0.0,2.6434137505963005,70,255,255,255
620,21.14094828599991,13.904864311218262,16.617937088012695,-15.013015747070312,-2.2549328804016113,1.1361534595489502,0.01676033064723015,0.0,0.0,0.0,2.648670564272008,70,255,255,255
621,21.175037702999816,13.840928077697754,16.665130615234375,-15.016342163085938,-2.2540690898895264,1.1612745523452759,-0.006847936660051346,0.0,0.0,0.0,2.6514397191734727,70,255,255,255
622,21.20323148999978,13.779489517211914,16.721824645996094,-15.020660400390625,-2.2441518306732178,1.1848666667938232,-0.00849432498216629,0.0,0.0,0.0,2.6554714787477436,70,255,255,255
623,21.24214777799989,13.71702766418457,16.777536392211914,-15.025161743164062,-2.240250587463379,1.2085949182510376,-0.03834598883986473,0.0,0.0,0.0,2.659861966120848,70,255,255,255
624,21.278323390999958,13.653160095214844,16.831514358520508,-15.030166625976562,-2.250133514404297,1.190057635307312,-0.051379770040512085,0.0,0.0,0.0,2.6645187696029606,70,255,255,255
625,21.307765300000028,13.588338851928711,16.88335609436035,-15.034805297851562,-2.2344605922698975,1.1858936548233032,-0.03489375486969948,0.0,0.0,0.0,2.6667683417757506,70,255,255,255
626,21.34328257299967,13.512359619140625,16.953519821166992,-15.041976928710938,-2.2372944355010986,1.1775084733963013,-0.03803252428770065,0.0,0.0,0.0,2.6714323357928063,70,255,255,255
627,21.37687707399982,13.450124740600586,17.00751495361328,-15.047332763671875,-2.239389419555664,1.1703317165374756,-0.037817567586898804,0.0,0.0,0.0,2.6767227052982485,70,255,255,255
628,21.4106925039996,13.386914253234863,17.059696197509766,-15.05224609375,-2.2269320487976074,1.1647865772247314,-0.04432902857661247,0.0,0.0,0.0,2.679524350765012,70,255,255,255
629,21.447439194999788,13.324665069580078,17.113073348999023,-15.055404663085938,-2.2169947624206543,1.171120524406433,-0.027849948033690453,0.0,0.0,0.0,2.684819247644308,70,255,255,255
630,21.480759130000024,13.263036727905273,17.167095184326172,-15.05657958984375,-2.2233211994171143,1.1334606409072876,0.0001987647556234151,0.0,0.0,0.0,2.6869399228203377,70,255,255,255
631,21.511460186000022,13.200191497802734,17.218690872192383,-15.056976318359375,-2.2120425701141357,1.135637640953064,0.011604792438447475,0.0,0.0,0.0,2.6911354668016485,70,255,255,255
632,21.54717486399977,13.119961738586426,17.280288696289062,-15.057571411132812,-2.23006534576416,1.0822466611862183,0.002434689085930586,0.0,0.0,0.0,2.6954628372569185,70,255,255,255
633,21.580636930999844,13.058199882507324,17.331430435180664,-15.056594848632812,-2.20871901512146,1.0953565835952759,0.0303454902023077,0.0,0.0,0.0,2.7003087251764266,70,255,255,255
634,21.613554074999684,12.996562004089355,17.382328033447266,-15.055007934570312,-2.2099716663360596,1.0941308736801147,0.020195866003632545,0.0,0.0,0.0,2.702641920607445,70,255,255,255
635,21.64932833299963,12.933725357055664,17.4315242767334,-15.053558349609375,-2.208192825317383,1.0855977535247803,0.029587067663669586,0.0,0.0,0.0,2.707649462405121,70,255,255,255
636,21.681838330999653,12.870004653930664,17.479053497314453,-15.052078247070312,-2.199281692504883,1.0887151956558228,0.03390096500515938,0.0,0.0,0.0,2.7100670800426947,70,255,255,255
637,21.71420660900003,12.809260368347168,17.532697677612305,-15.050567626953125,-2.199155807495117,1.094678521156311,0.04235134273767471,0.0,0.0,0.0,2.713144096366172,70,255,255,255
638,21.751038110999616,12.732955932617188,17.600135803222656,-15.0487060546875,-2.213331460952759,1.0773873329162598,0.013075348921120167,0.0,0.0,0.0,2.7175100826572485,70,255,255,255
639,21.78372539799966,12.670002937316895,17.6507511138916,-15.047637939453125,-2.2238757610321045,1.0513532161712646,0.028460562229156494,0.0,0.0,0.0,2.719350593286602,70,255,255,255
640,21.81641336199982,12.606497764587402,17.70087432861328,-15.04559326171875,-2.2223780155181885,1.0247606039047241,0.05208226293325424,0.0,0.0,0.0,2.723651864763189,70,255,255,255
641,21.85393796599965,12.54323673248291,17.75335121154785,-15.042755126953125,-2.240415334701538,1.000569224357605,0.04065348207950592,0.0,0.0,0.0,2.7277547307385652,70,255,255,255
642,21.88669424999989,12.478711128234863,17.803688049316406,-15.040740966796875,-2.230121374130249,1.0113826990127563,0.030217228457331657,0.0,0.0,0.0,2.7320328327136685,70,255,255,255
643,21.91870780699992,12.413470268249512,17.85232162475586,-15.03936767578125,-2.2203147411346436,1.0163452625274658,0.0012593643041327596,0.0,0.0,0.0,2.7337732084860353,70,255,255,255
644,21.9597112929996,12.33334732055664,17.9139461517334,-15.036712646484375,-2.2179787158966064,1.0075222253799438,0.0186005886644125,0.0,0.0,0.0,2.737803103847543,70,255,255,255
645,21.991433516999678,12.270792007446289,17.96473503112793,-15.033065795898438,-2.215561628341675,0.997904896736145,0.02964502014219761,0.0,0.0,0.0,2.739719780884073,70,255,255,255
646,22.023140457999943,12.207128524780273,18.013322830200195,-15.029312133789062,-2.2208189964294434,0.9905049800872803,0.026289762929081917,0.0,0.0,0.0,2.7427240929097914,70,255,255,255
647,22.063436140999784,12.14230728149414,18.06012535095215,-15.026336669921875,-2.22351336479187,0.9829369783401489,0.01629805937409401,0.0,0.0,0.0,2.745769151300188,70,255,255,255
