idx,t,px,py,pz,vx,vy,vz,ax,ay,az,yaw,mode,ledr,ledg,ledb
0,0.0,-0.1846320480108261,0.07395845651626587,-14.933212280273438,0.1740594059228897,-0.08255937695503235,-0.1467953622341156,0.0,0.0,0.0,0.0,70,255,64,64
1,0.045314928999687254,-0.1871654987335205,0.07274129241704941,-14.937545776367188,0.1818131059408188,-0.07544443756341934,-0.1320604532957077,0.0,0.0,0.0,0.003426706019361769,70,255,64,64
2,0.06677419599964196,-0.18874405324459076,0.07073111832141876,-14.941543579101562,0.17918221652507782,-0.10884669423103333,-0.1134893000125885,0.0,0.0,0.0,0.003426706019361769,70,255,64,64
3,0.09565210699975069,-0.1895451694726944,0.06830009073019028,-14.945816040039062,0.18541988730430603,-0.08291684836149216,-0.14283795654773712,0.0,0.0,0.0,0.0032647798433754712,70,255,64,64
4,0.12555976199973884,-0.19027729332447052,0.06630687415599823,-14.949905395507812,0.18360432982444763,-0.07049520313739777,-0.1668391078710556,0.0,0.0,0.0,0.003274289201002196,70,255,64,64
5,0.15822604499999215,-0.19063180685043335,0.06420344114303589,-14.954620361328125,0.2012394517660141,-0.07004337012767792,-0.18613967299461365,0.0,0.0,0.0,0.004838637567470171,70,255,64,64
6,0.19574718499961818,-0.18918783962726593,0.06148459017276764,-14.961532592773438,0.23966841399669647,-0.0599440298974514,-0.21990451216697693,0.0,0.0,0.0,0.010206169564754371,70,255,64,64
7,0.2301485589996446,-0.18581169843673706,0.059690024703741074,-14.967910766601562,0.2927126884460449,-0.06110463663935661,-0.23583006858825684,0.0,0.0,0.0,0.024503480954304664,70,255,64,64
8,0.2606474019999041,-0.18172688782215118,0.058441516011953354,-14.97515869140625,0.36457911133766174,-0.08139808475971222,-0.2090914249420166,0.0,0.0,0.0,0.0364424425241029,70,255,64,64
9,0.30030889499994373,-0.17471812665462494,0.05705966427922249,-14.982162475585938,0.46485036611557007,-0.07782275229692459,-0.18928328156471252,0.0,0.0,0.0,0.06965548181491607,70,255,64,64
10,0.3318797659999291,-0.1635741889476776,0.055004701018333435,-14.988235473632812,0.5854596495628357,-0.1005425825715065,-0.17287153005599976,0.0,0.0,0.0,0.11548479320035647,70,255,64,64
11,0.366287483999713,-0.14764413237571716,0.05245621129870415,-14.993682861328125,0.7200963497161865,-0.10866666585206985,-0.13729730248451233,0.0,0.0,0.0,0.14293992841160702,70,255,64,64
12,0.4004617909999979,-0.12496419250965118,0.048155128955841064,-14.997970581054688,0.9142969846725464,-0.14812181890010834,-0.1112428829073906,0.0,0.0,0.0,0.20776434862414608,70,255,64,64
13,0.4326734499995837,-0.10003053396940231,0.04336189851164818,-15.00054931640625,1.0759142637252808,-0.19481536746025085,-0.06501633673906326,0.0,0.0,0.0,0.24462198212338154,70,255,64,64
14,0.4656847419996666,-0.06926589459180832,0.03708036243915558,-15.001541137695312,1.2399656772613525,-0.2121070921421051,-0.017951535061001778,0.0,0.0,0.0,0.3254650499766382,70,255,64,64
15,0.5023149149997153,-0.033555373549461365,0.0301637165248394,-15.000625610351562,1.4021433591842651,-0.22273869812488556,0.029055526480078697,0.0,0.0,0.0,0.41223902751177177,70,255,64,64
16,0.5353695609996976,0.005335900001227856,0.02300983853638172,-14.997085571289062,1.583365797996521,-0.22845380008220673,0.0815030038356781,0.0,0.0,0.0,0.4579915025385742,70,255,64,64
17,0.5671682279999004,0.05111698433756828,0.015312275849282742,-14.992141723632812,1.7680027484893799,-0.2489471137523651,0.12724296748638153,0.0,0.0,0.0,0.5530924524330858,70,255,64,64
18,0.6100688919996173,0.11851690709590912,0.005104822106659412,-14.984542846679688,2.033250331878662,-0.2617489695549011,0.16282042860984802,0.0,0.0,0.0,0.6500910044728196,70,255,64,64
19,0.6447402469998451,0.17814382910728455,-0.0027948138304054737,-14.978134155273438,2.2503199577331543,-0.24182622134685516,0.14525097608566284,0.0,0.0,0.0,0.6982715833339882,70,255,64,64
20,0.6733693459996175,0.24285998940467834,-0.010014558210968971,-14.972091674804688,2.4722657203674316,-0.24806159734725952,0.15859568119049072,0.0,0.0,0.0,0.793849505379733,70,255,64,64
21,0.7065017589998206,0.3157897889614105,-0.017395805567502975,-14.965911865234375,2.6838510036468506,-0.2446850836277008,0.15633659064769745,0.0,0.0,0.0,0.8888912665190176,70,255,64,64
22,0.7413348979998773,0.3968755602836609,-0.024710582569241524,-14.960769653320312,2.91241192817688,-0.23809513449668884,0.10442551970481873,0.0,0.0,0.0,0.9790718931415533,70,255,64,64
23,0.7719519049996961,0.4836552143096924,-0.032561276108026505,-14.956756591796875,3.155468702316284,-0.24020013213157654,0.066280297935009,0.0,0.0,0.0,1.0228649806858434,70,255,64,64
24,0.8127617189998091,0.6038456559181213,-0.04246446490287781,-14.953872680664062,3.4763004779815674,-0.23756013810634613,0.013151661492884159,0.0,0.0,0.0,1.106492832867212,70,255,64,64
25,0.8452297569997427,0.7106485962867737,-0.05080021917819977,-14.952682495117188,3.7237889766693115,-0.2427651435136795,-0.00819470826536417,0.0,0.0,0.0,1.183515046859775,70,255,64,64
26,0.8746611299998222,0.8254979848861694,-0.05872895568609238,-14.952392578125,3.939984083175659,-0.22685274481773376,-0.037381693720817566,0.0,0.0,0.0,1.2206620161666908,70,255,64,64
27,0.9114819199999147,0.9464117884635925,-0.0651191845536232,-14.954574584960938,4.120750904083252,-0.2012384682893753,-0.08820284903049469,0.0,0.0,0.0,1.2907032859938294,70,255,64,64
28,0.9466337799999565,1.0742534399032593,-0.07088229060173035,-14.957443237304688,4.336544036865234,-0.18892231583595276,-0.09136490523815155,0.0,0.0,0.0,1.3553272866895831,70,255,64,64
29,0.9793699869996999,1.244663953781128,-0.07720760256052017,-14.96148681640625,4.580321311950684,-0.1802971065044403,-0.11326741427183151,0.0,0.0,0.0,1.3851739988163736,70,255,64,64
30,1.01342638099959,1.3872493505477905,-0.08030325919389725,-14.9661865234375,4.780957221984863,-0.15822839736938477,-0.13659170269966125,0.0,0.0,0.0,1.4413491209538511,70,255,64,64
31,1.0470166860000063,1.5352702140808105,-0.08135253936052322,-14.9716796875,4.948276042938232,-0.13777516782283783,-0.14532071352005005,0.0,0.0,0.0,1.4934698466477918,70,255,64,64
32,1.0813759149996258,1.6894344091415405,-0.0817018523812294,-14.97662353515625,5.113042831420898,-0.11183742433786392,-0.12719769775867462,0.0,0.0,0.0,1.517136027674781,70,255,64,64
33,1.1164992379999603,1.8505388498306274,-0.0810147076845169,-14.981552124023438,5.310894012451172,-0.08673501759767532,-0.12455560266971588,0.0,0.0,0.0,1.5663641609507322,70,255,64,64
34,1.1492607099999077,2.0160884857177734,-0.08011161535978317,-14.986648559570312,5.472479343414307,-0.059545014053583145,-0.0967201367020607,0.0,0.0,0.0,1.6018575735368177,70,255,64,64
35,1.1853664939999362,2.1856534481048584,-0.07893642783164978,-14.992172241210938,5.5938191413879395,-0.04288698732852936,-0.11777578294277191,0.0,0.0,0.0,1.6193381634579345,70,255,64,64
36,1.2181463329998223,2.4041171073913574,-0.0766577273607254,-14.999481201171875,5.726918697357178,-0.031558696180582047,-0.13842488825321198,0.0,0.0,0.0,1.6495092486054965,70,255,64,64
37,1.251091157999781,2.5836832523345947,-0.07438391447067261,-15.005661010742188,5.853724479675293,-0.020778397098183632,-0.14189213514328003,0.0,0.0,0.0,1.6747620078519003,70,255,64,64
38,1.2828658909998012,2.766375780105591,-0.07414302974939346,-15.012222290039062,5.996825218200684,-0.00864920299500227,-0.11934597790241241,0.0,0.0,0.0,1.6855961466405063,70,255,64,64
39,1.3193732009999621,2.953594923019409,-0.07417606562376022,-15.018417358398438,6.129876136779785,-0.005047919228672981,-0.12933021783828735,0.0,0.0,0.0,1.703231599379011,70,255,64,64
40,1.3527854659996592,3.1453487873077393,-0.0734453871846199,-15.024993896484375,6.226360321044922,0.01076674833893776,-0.13342799246311188,0.0,0.0,0.0,1.709785372505587,70,255,64,64
41,1.3847327239996048,3.3411648273468018,-0.07185368239879608,-15.031021118164062,6.358526229858398,0.029185570776462555,-0.10407349467277527,0.0,0.0,0.0,1.7194991194235965,70,255,64,64
42,1.4226573739997548,3.5898382663726807,-0.06660391390323639,-15.03558349609375,6.471151351928711,0.049637582153081894,-0.11169572174549103,0.0,0.0,0.0,1.726321738662216,70,255,64,64
43,1.4553081509998265,3.7931108474731445,-0.061851244419813156,-15.039382934570312,6.587882041931152,0.05751507729291916,-0.10254984349012375,0.0,0.0,0.0,1.730421675160393,70,255,64,64
44,1.4873796189999666,3.999948501586914,-0.0571538545191288,-15.043106079101562,6.655580520629883,0.05561915412545204,-0.10705357044935226,0.0,0.0,0.0,1.7317559188665228,70,255,64,64
45,1.5258078699998805,4.2090888023376465,-0.05230990797281265,-15.047286987304688,6.75585412979126,0.0578826405107975,-0.08954042941331863,0.0,0.0,0.0,1.729764007529198,70,255,64,64
46,1.558234357999936,4.418694019317627,-0.04711915925145149,-15.054046630859375,6.842381477355957,0.06561440974473953,-0.08835920691490173,0.0,0.0,0.0,1.72687767353977,70,255,64,64
47,1.5903449809998165,4.63175630569458,-0.04181850701570511,-15.060302734375,6.934137344360352,0.06229664012789726,-0.08471421897411346,0.0,0.0,0.0,1.719632943268373,70,255,64,64
48,1.6294079780000175,4.902909755706787,-0.03499533236026764,-15.066635131835938,7.037477016448975,0.08392421156167984,-0.03344214707612991,0.0,0.0,0.0,1.7112242784425569,70,255,64,64
49,1.6603299149996928,5.12315559387207,-0.028280233964323997,-15.070083618164062,7.093724727630615,0.07597888261079788,-0.047422464936971664,0.0,0.0,0.0,1.6985504279729242,70,255,64,64
50,1.6911991819997638,5.34561824798584,-0.02093600668013096,-15.073516845703125,7.137217044830322,0.07016634941101074,-0.06581582129001617,0.0,0.0,0.0,1.6921666976819498,70,255,64,64
51,1.73068406099992,5.570052623748779,-0.014088074676692486,-15.076705932617188,7.203658580780029,0.06823192536830902,-0.049982961267232895,0.0,0.0,0.0,1.6770274258331763,70,255,64,64
52,1.7623205489999236,5.797092437744141,-0.007701749447733164,-15.079818725585938,7.262513637542725,0.05841311439871788,-0.052617188543081284,0.0,0.0,0.0,1.6686702931744533,70,255,64,64
53,1.7982529329997305,6.024654865264893,-0.000184771663043648,-15.084609985351562,7.320385456085205,0.0595732182264328,-0.08279100805521011,0.0,0.0,0.0,1.6527641640897914,70,255,64,64
54,1.8318569709999792,6.311821937561035,0.00952811911702156,-15.090927124023438,7.38823127746582,0.06079316884279251,-0.07609748840332031,0.0,0.0,0.0,1.6364452450361673,70,255,64,64
55,1.8641246929996669,6.5444231033325195,0.016769198700785637,-15.095413208007812,7.453952312469482,0.05935470759868622,-0.04606461524963379,0.0,0.0,0.0,1.6210128923094307,70,255,64,64
56,1.8957458840000072,6.779360294342041,0.02362833544611931,-15.099166870117188,7.498328685760498,0.060059577226638794,-0.050175875425338745,0.0,0.0,0.0,1.6138355400136126,70,255,64,64
57,1.9325972259998707,7.016821384429932,0.033241089433431625,-15.1053466796875,7.5492777824401855,0.058182667940855026,-0.05089297518134117,0.0,0.0,0.0,1.5985786896027123,70,255,64,64
58,1.9653799259999687,7.25627326965332,0.04219050332903862,-15.111099243164062,7.598450660705566,0.05967457592487335,-0.05409998074173927,0.0,0.0,0.0,1.591212652343662,70,255,64,64
59,1.998753786999714,7.497459888458252,0.05043058097362518,-15.1165771484375,7.638681888580322,0.0511280819773674,-0.04691644757986069,0.0,0.0,0.0,1.5739817337747404,70,255,64,64
60,2.0364207589996113,7.80021858215332,0.0599253848195076,-15.124038696289062,7.702305316925049,0.03392520174384117,-0.05324232205748558,0.0,0.0,0.0,1.5583681529358238,70,255,64,64
61,2.068531014999735,8.043081283569336,0.06729844957590103,-15.130340576171875,7.75867223739624,0.02911984920501709,-0.02248717099428177,0.0,0.0,0.0,1.5443423487388126,70,255,64,64
62,2.100940003999767,8.287432670593262,0.07395616173744202,-15.13592529296875,7.759060859680176,0.031372640281915665,-0.013818282634019852,0.0,0.0,0.0,1.537585243263009,70,255,64,64
63,2.1378584449998925,8.532394409179688,0.08035822212696075,-15.140182495117188,7.775069236755371,0.03526270017027855,0.023938603699207306,0.0,0.0,0.0,1.5247855584318701,70,255,64,64
64,2.1707789229999435,8.776456832885742,0.08711399883031845,-15.144500732421875,7.786997318267822,0.035553526133298874,0.037446655333042145,0.0,0.0,0.0,1.518179454189874,70,255,64,64
65,2.2032726829997955,9.019600868225098,0.09424970299005508,-15.149032592773438,7.793253421783447,0.03619895502924919,0.05362795665860176,0.0,0.0,0.0,1.5070901845688387,70,255,64,64
66,2.241585656999632,9.324418067932129,0.10226964950561523,-15.153594970703125,7.781777381896973,0.029754020273685455,0.05983193218708038,0.0,0.0,0.0,1.4975651226140612,70,255,64,64
67,2.2745709369996803,9.568317413330078,0.10814476758241653,-15.15667724609375,7.7487688064575195,0.03469839319586754,0.053892482072114944,0.0,0.0,0.0,1.492150117169603,70,255,64,64
68,2.3074946379997527,9.810262680053711,0.11487901955842972,-15.156997680664062,7.754282474517822,0.02912401407957077,0.0769941583275795,0.0,0.0,0.0,1.484245588738139,70,255,64,64
69,2.344064920999699,10.051563262939453,0.12165709584951401,-15.155868530273438,7.712831497192383,0.03806537017226219,0.06848686933517456,0.0,0.0,0.0,1.4761166889848356,70,255,64,64
70,2.379899932999706,10.29244327545166,0.12819215655326843,-15.154769897460938,7.685505390167236,0.04187777638435364,0.09335288405418396,0.0,0.0,0.0,1.468969297251281,70,255,64,64
71,2.408440908999637,10.532577514648438,0.13433389365673065,-15.152496337890625,7.63649320602417,0.04210672900080681,0.1360306739807129,0.0,0.0,0.0,1.4649411329444815,70,255,64,64
72,2.4467487749998327,10.8319673538208,0.1433219462633133,-15.147750854492188,7.614288806915283,0.05258053541183472,0.17446023225784302,0.0,0.0,0.0,1.4589607384005996,70,255,64,64
73,2.482935858000019,11.0700101852417,0.15039363503456116,-15.143203735351562,7.52972936630249,0.06188194826245308,0.16461631655693054,0.0,0.0,0.0,1.457107844072177,70,255,64,64
74,2.5131678349998765,11.305967330932617,0.15704937279224396,-15.139007568359375,7.458862781524658,0.0587780624628067,0.1498141586780548,0.0,0.0,0.0,1.4534176349077086,70,255,64,64
75,2.54813791999959,11.539761543273926,0.1632654219865799,-15.136062622070312,7.37662935256958,0.05954866111278534,0.11972023546695709,0.0,0.0,0.0,1.4514343788439266,70,255,64,64
76,2.583369604999916,11.769939422607422,0.16863009333610535,-15.135345458984375,7.267174243927002,0.05931244418025017,0.1326131671667099,0.0,0.0,0.0,1.4507414243282881,70,255,64,64
77,2.614287623999644,11.99750804901123,0.1736644059419632,-15.133682250976562,7.183328628540039,0.056953251361846924,0.15169866383075714,0.0,0.0,0.0,1.4503542007057906,70,255,64,64
78,2.6502967069995975,12.279273986816406,0.17928825318813324,-15.130599975585938,7.101321697235107,0.04441840574145317,0.17256948351860046,0.0,0.0,0.0,1.4515411716036388,70,255,64,64
79,2.6814155659999415,12.502678871154785,0.18513433635234833,-15.126663208007812,7.022650718688965,0.04287562519311905,0.19185274839401245,0.0,0.0,0.0,1.4527706199208739,70,255,64,64
80,2.7157328339999367,12.72299575805664,0.19253912568092346,-15.121292114257812,6.927158832550049,0.04408969730138779,0.19111041724681854,0.0,0.0,0.0,1.4559706742867131,70,255,64,64
81,2.751037030999669,12.941179275512695,0.19927002489566803,-15.116485595703125,6.82276725769043,0.043688416481018066,0.15875723958015442,0.0,0.0,0.0,1.4600580939277668,70,255,64,64
82,2.783737989999736,13.156015396118164,0.20555244386196136,-15.112258911132812,6.726709365844727,0.03778401389718056,0.14797218143939972,0.0,0.0,0.0,1.4626466865073238,70,255,64,64
83,2.8169304009998086,13.368056297302246,0.2133275419473648,-15.109756469726562,6.627715110778809,0.0373804047703743,0.12663963437080383,0.0,0.0,0.0,1.4686503837107439,70,255,64,64
84,2.8532072549996883,13.628803253173828,0.22291642427444458,-15.107376098632812,6.487689971923828,0.03607118874788284,0.11126843839883804,0.0,0.0,0.0,1.4749949655336942,70,255,64,64
85,2.8864452719999463,13.833803176879883,0.2299579679965973,-15.1053466796875,6.380003452301025,0.037216730415821075,0.09927134215831757,0.0,0.0,0.0,1.4817858931553418,70,255,64,64
86,2.9193141649998324,14.035033226013184,0.23622266948223114,-15.103713989257812,6.263241291046143,0.02679133042693138,0.08339101821184158,0.0,0.0,0.0,1.4858305690608995,70,255,64,64
87,2.9572798269996383,14.234739303588867,0.2387145757675171,-15.101150512695312,6.14512300491333,0.020013004541397095,0.10323262214660645,0.0,0.0,0.0,1.4925302834152119,70,255,64,64
88,2.990292863999912,14.430685043334961,0.24062307178974152,-15.098342895507812,6.041845321655273,0.005406836047768593,0.10157894343137741,0.0,0.0,0.0,1.499282728359108,70,255,64,64
89,3.0244147439998414,14.623635292053223,0.2418712079524994,-15.0953369140625,5.94039249420166,-0.0020014510955661535,0.11108104884624481,0.0,0.0,0.0,1.5026060870834177,70,255,64,64
90,3.061526656999831,14.85913372039795,0.24324668943881989,-15.092147827148438,5.7838969230651855,0.0003074811538681388,0.0841529592871666,0.0,0.0,0.0,1.510279719448372,70,255,64,64
91,3.095518816999629,15.043418884277344,0.2442062944173813,-15.090179443359375,5.699453353881836,-0.010551964864134789,0.08090861886739731,0.0,0.0,0.0,1.513938103837814,70,255,64,64
92,3.1261193860000276,15.224884986877441,0.24463821947574615,-15.088043212890625,5.591347694396973,-0.023648099973797798,0.0877443328499794,0.0,0.0,0.0,1.5206720398121336,70,255,64,64
93,3.162507720999656,15.4027681350708,0.24452701210975647,-15.08599853515625,5.472041606903076,-0.027078382670879364,0.0852762907743454,0.0,0.0,0.0,1.5279480622263393,70,255,64,64
94,3.1962186009996003,15.576491355895996,0.2437373846769333,-15.083984375,5.333352565765381,-0.04045121744275093,0.0760173425078392,0.0,0.0,0.0,1.5341095517243466,70,255,64,64
95,3.2297612729998946,15.787341117858887,0.24138304591178894,-15.083221435546875,5.160139083862305,-0.06043960154056549,0.04113101586699486,0.0,0.0,0.0,1.5375263874029181,70,255,64,64
96,3.2684160569997402,15.95199203491211,0.23876775801181793,-15.082809448242188,5.060072422027588,-0.07055819034576416,0.03249088302254677,0.0,0.0,0.0,1.54326523323593,70,255,64,64
97,3.302700757999901,16.113101959228516,0.23585742712020874,-15.082489013671875,4.931606769561768,-0.07470335811376572,0.01886298879981041,0.0,0.0,0.0,1.5461948435930717,70,255,64,64
98,3.3373896849998346,16.272226333618164,0.23397119343280792,-15.078659057617188,4.803839206695557,-0.07924823462963104,0.024155037477612495,0.0,0.0,0.0,1.5506681552760777,70,255,64,64
99,3.375199507999696,16.428054809570312,0.2321980893611908,-15.073654174804688,4.692326068878174,-0.08510421216487885,0.048506613820791245,0.0,0.0,0.0,1.5556175070039355,70,255,64,64
100,3.412852668999676,16.580156326293945,0.23011094331741333,-15.068496704101562,4.582263469696045,-0.09022248536348343,0.043487340211868286,0.0,0.0,0.0,1.5556175070039355,70,255,64,64
101,3.4513376029999563,16.728282928466797,0.2275138795375824,-15.06329345703125,4.4615559577941895,-0.09729433059692383,0.0825703889131546,0.0,0.0,0.0,1.559733422468653,70,255,64,64
102,3.47450246399967,16.91080093383789,0.2205590456724167,-15.053176879882812,4.3068528175354,-0.11520280689001083,0.10321361571550369,0.0,0.0,0.0,1.561468338760785,70,255,64,64
103,3.512309646999711,17.052326202392578,0.214739128947258,-15.04534912109375,4.205177307128906,-0.11476784199476242,0.09705032408237457,0.0,0.0,0.0,1.563044930126112,70,255,64,64
104,3.541957209999964,17.189884185791016,0.20882873237133026,-15.03814697265625,4.054492473602295,-0.1209140196442604,0.08940338343381882,0.0,0.0,0.0,1.5658162155564483,70,255,64,64
105,3.583689096999933,17.3226318359375,0.2025328278541565,-15.032638549804688,3.9313087463378906,-0.13271941244602203,0.04893878102302551,0.0,0.0,0.0,1.568036892431411,70,255,64,64
106,3.6177011799995853,17.45028305053711,0.1958593726158142,-15.029876708984375,3.827044725418091,-0.12699568271636963,0.045771289616823196,0.0,0.0,0.0,1.56913105216527,70,255,64,64
107,3.642294369999945,17.57413673400879,0.18924283981323242,-15.027130126953125,3.7057344913482666,-0.13275617361068726,0.041907403618097305,0.0,0.0,0.0,1.5694374488486837,70,255,64,64
108,3.6749371599998994,17.723670959472656,0.1809971034526825,-15.023773193359375,3.5602543354034424,-0.1271010935306549,0.03974948450922966,0.0,0.0,0.0,1.5705238854153816,70,255,64,64
109,3.7083886499999608,17.83922576904297,0.17484505474567413,-15.022232055664062,3.4357731342315674,-0.14553067088127136,0.021974559873342514,0.0,0.0,0.0,1.570589798652361,70,255,64,64
110,3.7401062529997944,17.95244026184082,0.1688169538974762,-15.021514892578125,3.3657994270324707,-0.1445464789867401,-0.00016005069483071566,0.0,0.0,0.0,1.570288861449182,70,255,64,64
111,3.778409944000032,18.062528610229492,0.16268721222877502,-15.021377563476562,3.26194429397583,-0.14858949184417725,-0.012395067140460014,0.0,0.0,0.0,1.5697483729059505,70,255,64,64
112,3.8112914909997926,18.16942024230957,0.156557098031044,-15.021469116210938,3.1763224601745605,-0.14245672523975372,0.0011365916579961777,0.0,0.0,0.0,1.568510136157118,70,255,64,64
113,3.844496874000015,18.30248260498047,0.14807738363742828,-15.019577026367188,3.0653140544891357,-0.15713730454444885,0.0011856022756546736,0.0,0.0,0.0,1.5677218404744546,70,255,64,64
114,3.8805437219998566,18.405725479125977,0.14090494811534882,-15.017532348632812,2.960289478302002,-0.158253014087677,0.038757532835006714,0.0,0.0,0.0,1.5659633552066754,70,255,64,64
115,3.9128565749997506,18.50520896911621,0.1336929351091385,-15.015396118164062,2.86575984954834,-0.15829437971115112,0.01874273270368576,0.0,0.0,0.0,1.5651027547004162,70,255,64,64
116,3.9473409719998926,18.601768493652344,0.12663239240646362,-15.013595581054688,2.7913331985473633,-0.15200142562389374,0.029466714709997177,0.0,0.0,0.0,1.5631715634359453,70,255,64,64
117,3.982475783999689,18.699522018432617,0.1197798103094101,-15.010391235351562,2.690868616104126,-0.15583811700344086,0.051757194101810455,0.0,0.0,0.0,1.5614856493078706,70,255,64,64
118,4.014648918999683,18.793710708618164,0.1131906658411026,-15.0072021484375,2.60978627204895,-0.14269211888313293,0.03775906190276146,0.0,0.0,0.0,1.5607671284457671,70,255,64,64
119,4.047353220999867,18.88405418395996,0.10678227990865707,-15.004638671875,2.4915976524353027,-0.14523395895957947,0.032164111733436584,0.0,0.0,0.0,1.5591398038616742,70,255,64,64
120,4.08414925299985,18.992233276367188,0.0990268737077713,-15.001068115234375,2.3810393810272217,-0.14227862656116486,0.02189130336046219,0.0,0.0,0.0,1.55714376462466,70,255,64,64
121,4.117397720999634,19.07612419128418,0.09302793443202972,-14.998077392578125,2.327089309692383,-0.14702780544757843,0.015619806945323944,0.0,0.0,0.0,1.55600020325258,70,255,64,64
122,4.149462115999995,19.15732765197754,0.08702552318572998,-14.995376586914062,2.212944746017456,-0.1393706053495407,0.012737750075757504,0.0,0.0,0.0,1.5549216230110978,70,255,64,64
123,4.186292804000004,19.23379898071289,0.08147061616182327,-14.9927978515625,2.1103434562683105,-0.12914186716079712,0.014010019600391388,0.0,0.0,0.0,1.553234909934696,70,255,64,64
124,4.219802553999671,19.310340881347656,0.07566002756357193,-14.989715576171875,2.0570387840270996,-0.12612414360046387,-0.0021468589548021555,0.0,0.0,0.0,1.552335693592631,70,255,64,64
125,4.25204681499963,19.386226654052734,0.06959228217601776,-14.986480712890625,1.988969087600708,-0.12144944816827774,-0.014778800308704376,0.0,0.0,0.0,1.5516058542958946,70,255,64,64
126,4.289776002999588,19.476682662963867,0.062308646738529205,-14.983108520507812,1.8738842010498047,-0.11213024705648422,-0.01883077621459961,0.0,0.0,0.0,1.549789977906624,70,255,64,64
127,4.3227208759999485,19.544775009155273,0.05706150457262993,-14.981155395507812,1.7865217924118042,-0.10559234023094177,-0.031235164031386375,0.0,0.0,0.0,1.5492400351415228,70,255,64,64
128,4.354086989999814,19.612062454223633,0.048641104251146317,-14.979202270507812,1.7144109010696411,-0.11062023043632507,-0.023726947605609894,0.0,0.0,0.0,1.54909715654904,70,255,64,64
129,4.402653225999984,19.677066802978516,0.03934042900800705,-14.97711181640625,1.6356772184371948,-0.12137772142887115,-0.019829964265227318,0.0,0.0,0.0,1.5480879516539545,70,255,64,64
130,4.435174601999734,19.73824691772461,0.030216868966817856,-14.976348876953125,1.5330950021743774,-0.12191220372915268,-0.06278835237026215,0.0,0.0,0.0,1.548007524189034,70,255,64,64
131,4.471453736999592,19.796184539794922,0.02147933840751648,-14.976272583007812,1.4687002897262573,-0.1208634153008461,-0.055144619196653366,0.0,0.0,0.0,1.5474216287492166,70,255,64,64
132,4.504570973999762,19.8677978515625,0.0074990782886743546,-14.976531982421875,1.3615248203277588,-0.12263523787260056,-0.04037835821509361,0.0,0.0,0.0,1.5471764847708749,70,255,64,64
133,4.532532128999719,19.9215145111084,-0.003050581319257617,-14.97650146484375,1.31428062915802,-0.12196367979049683,-0.021569188684225082,0.0,0.0,0.0,1.5469126986649024,70,255,64,64
134,4.565303803999996,19.973121643066406,-0.013151062652468681,-14.976181030273438,1.2609632015228271,-0.11760229617357254,-0.022432589903473854,0.0,0.0,0.0,1.5466483799267121,70,255,64,64
135,4.608256295999581,20.023061752319336,-0.022028392180800438,-14.976089477539062,1.1723971366882324,-0.11225380003452301,-0.021254366263747215,0.0,0.0,0.0,1.5468358664674537,70,255,64,64
136,4.6309355289999985,20.073591232299805,-0.028456000611186028,-14.976165771484375,1.091921091079712,-0.1091841533780098,-0.016190767288208008,0.0,0.0,0.0,1.5473164338861585,70,255,64,64
137,4.662906358999862,20.1207332611084,-0.03478964418172836,-14.976211547851562,1.0571959018707275,-0.11284189671278,-0.019668947905302048,0.0,0.0,0.0,1.5484328310151196,70,255,64,64
138,4.700955057999636,20.17681884765625,-0.04260547459125519,-14.976669311523438,1.0096549987792969,-0.11405060440301895,-0.033193111419677734,0.0,0.0,0.0,1.5485409553553768,70,255,64,64
139,4.732641892999709,20.221426010131836,-0.04939504712820053,-14.975265502929688,0.9646437168121338,-0.1086537316441536,-0.07178976386785507,0.0,0.0,0.0,1.5486562702305773,70,255,64,64
140,4.7654687069998545,20.265901565551758,-0.05666676163673401,-14.972213745117188,0.9098614454269409,-0.10255809873342514,-0.0657772347331047,0.0,0.0,0.0,1.5486530744372693,70,255,64,64
141,4.802170570999806,20.30801010131836,-0.06335853040218353,-14.96990966796875,0.8729572892189026,-0.09706053137779236,-0.08909459412097931,0.0,0.0,0.0,1.5495424370833013,70,255,64,64
142,4.834814830999676,20.347553253173828,-0.06957919150590897,-14.968841552734375,0.8318240642547607,-0.09137711673974991,-0.09070469439029694,0.0,0.0,0.0,1.550035121884966,70,255,64,64
143,4.867400346999602,20.389312744140625,-0.07552366703748703,-14.969085693359375,0.7919990420341492,-0.08564446866512299,-0.09175416827201843,0.0,0.0,0.0,1.5505979809813542,70,255,64,64
144,4.904415702999813,20.439189910888672,-0.08252613246440887,-14.969528198242188,0.7222223877906799,-0.08325262367725372,-0.06429146975278854,0.0,0.0,0.0,1.5516402090739567,70,255,64,64
145,4.937309088999882,20.47602653503418,-0.08770012110471725,-14.969573974609375,0.6809880137443542,-0.0721469298005104,-0.04463342949748039,0.0,0.0,0.0,1.5525660570269226,70,255,64,64
146,4.969292374999895,20.51032257080078,-0.09247346967458725,-14.968887329101562,0.6448963284492493,-0.06836363673210144,-0.018675142899155617,0.0,0.0,0.0,1.5529615364487994,70,255,64,64
147,5.007020440999895,20.54636573791504,-0.09984157979488373,-14.96588134765625,0.605498194694519,-0.07062100619077682,-0.030081283301115036,0.0,0.0,0.0,1.5539495692132188,70,255,64,64
148,5.039631722999729,20.580116271972656,-0.10680294036865234,-14.963699340820312,0.5640272498130798,-0.06722266972064972,-0.02213406004011631,0.0,0.0,0.0,1.5542787359239527,70,255,64,64
149,5.075269449999723,20.6110782623291,-0.1133124828338623,-14.961715698242188,0.528964638710022,-0.06541875749826431,-0.033775173127651215,0.0,0.0,0.0,1.5554320178340115,70,255,64,64
150,5.117327575999752,20.650014877319336,-0.12066084146499634,-14.957794189453125,0.4854893684387207,-0.07055971771478653,-0.02335517108440399,0.0,0.0,0.0,1.5571403025152428,70,255,64,64
151,5.1541666709999845,20.68182373046875,-0.12576037645339966,-14.952102661132812,0.404526025056839,-0.06689371168613434,-0.0008576447144150734,0.0,0.0,0.0,1.557923538191835,70,255,64,64
152,5.187276106999889,20.709978103637695,-0.13047923147678375,-14.9466552734375,0.35398954153060913,-0.05682399868965149,0.005841284524649382,0.0,0.0,0.0,1.5586836043669436,70,255,64,64
153,5.219788698999764,20.735183715820312,-0.13478469848632812,-14.94171142578125,0.3088688254356384,-0.05545162409543991,0.006427623797208071,0.0,0.0,0.0,1.5590706948313866,70,255,64,64
154,5.256372328999987,20.76161766052246,-0.13887417316436768,-14.937850952148438,0.2828441560268402,-0.041510239243507385,-0.008396212011575699,0.0,0.0,0.0,1.5594715005754436,70,255,64,64
155,5.286901492999732,20.78917694091797,-0.142462357878685,-14.934829711914062,0.2484617531299591,-0.02524246834218502,-0.023030536249279976,0.0,0.0,0.0,1.5596223686511965,70,255,64,64
156,5.325301488999685,20.8188419342041,-0.14620669186115265,-14.931594848632812,0.1810508668422699,-0.020657150074839592,-0.021940862759947777,0.0,0.0,0.0,1.560597751400438,70,255,64,64
157,5.363164998999764,20.8399715423584,-0.1487434059381485,-14.93011474609375,0.15784552693367004,-0.011372273787856102,-0.03735871985554695,0.0,0.0,0.0,1.5605688561026108,70,255,64,64
158,5.394716582000001,20.86252784729004,-0.15140949189662933,-14.928268432617188,0.14976710081100464,-0.0020235725678503513,-0.06058703362941742,0.0,0.0,0.0,1.5602508746684554,70,255,64,64
159,5.426141935000032,20.88351821899414,-0.15382499992847443,-14.926849365234375,0.0701284185051918,0.004557841923087835,-0.061354950070381165,0.0,0.0,0.0,1.560580041379189,70,255,64,64
160,5.464373566999711,20.90152359008789,-0.1558535397052765,-14.92608642578125,0.0797123908996582,0.014622815884649754,-0.06151306629180908,0.0,0.0,0.0,1.5601074634437546,70,255,64,64
161,5.501165975999811,20.917510986328125,-0.1573779582977295,-14.925338745117188,0.021227817982435226,0.02056877128779888,-0.07260692864656448,0.0,0.0,0.0,1.5603761763977435,70,255,64,64
162,5.532562256999881,20.94028663635254,-0.15926504135131836,-14.91949462890625,0.0010168401058763266,0.02659383974969387,-0.06232915818691254,0.0,0.0,0.0,1.5603492784707338,70,255,64,64
163,5.566753457999766,20.955860137939453,-0.16060037910938263,-14.91595458984375,-0.02604786865413189,0.029037896543741226,-0.06271811574697495,0.0,0.0,0.0,1.5604558049143369,70,255,64,64
164,5.599738709999656,20.969520568847656,-0.16166426241397858,-14.91290283203125,-0.025960566475987434,0.0326792374253273,-0.05976632609963417,0.0,0.0,0.0,1.5611736599861679,70,255,64,64
165,5.63071616399975,20.983089447021484,-0.16318459808826447,-14.911651611328125,-0.05359730124473572,0.03432918339967728,-0.06447810679674149,0.0,0.0,0.0,1.563552528629881,70,255,64,64
166,5.658436032999816,20.998920440673828,-0.1666053831577301,-14.913421630859375,-0.08343751728534698,0.03485681489109993,-0.053461704403162,0.0,0.0,0.0,1.5641011398144373,70,255,64,64
167,5.691007670999625,21.012121200561523,-0.16944855451583862,-14.915298461914062,-0.10766444355249405,0.040906209498643875,-0.06032069772481918,0.0,0.0,0.0,1.565046961475579,70,255,64,64
168,5.730666166999981,21.02510643005371,-0.17299334704875946,-14.917510986328125,-0.15877965092658997,0.027660399675369263,-0.042617518454790115,0.0,0.0,0.0,1.564710071597684,70,255,64,64
169,5.761481718999676,21.03531265258789,-0.17681416869163513,-14.919906616210938,-0.16312585771083832,0.031811319291591644,-0.05746420472860336,0.0,0.0,0.0,1.5653577523747912,70,255,64,64
170,5.79387708799959,21.045616149902344,-0.18166440725326538,-14.923736572265625,-0.19911156594753265,0.02420414611697197,-0.08352197706699371,0.0,0.0,0.0,1.5651714642565402,70,255,64,64
171,5.847119097999894,21.05380630493164,-0.18612316250801086,-14.927581787109375,-0.22153006494045258,0.02729872800409794,-0.050335757434368134,0.0,0.0,0.0,1.5657391170428907,70,255,64,64
172,5.872102818999792,21.060302734375,-0.18990299105644226,-14.93060302734375,-0.22022710740566254,0.03943280875682831,-0.045311033725738525,0.0,0.0,0.0,1.5657034306842836,70,255,64,64
173,5.904480518999662,21.075576782226562,-0.19442017376422882,-14.930923461914062,-0.22717124223709106,0.04695654287934303,-0.05329793319106102,0.0,0.0,0.0,1.565730461769348,70,255,64,64
174,5.937229636999746,21.08688735961914,-0.197566956281662,-14.930999755859375,-0.2396799772977829,0.0480203703045845,-0.053367357701063156,0.0,0.0,0.0,1.5658172808208843,70,255,64,64
175,5.967832539000028,21.096529006958008,-0.20028065145015717,-14.9312744140625,-0.22245612740516663,0.05055413395166397,-0.051144424825906754,0.0,0.0,0.0,1.5659576294103317,70,255,64,64
176,6.00832587099967,21.104923248291016,-0.20247751474380493,-14.931716918945312,-0.2188018560409546,0.05433013662695885,-0.056479912251234055,0.0,0.0,0.0,1.566110228540793,70,255,64,64
177,6.042486112999995,21.11668586730957,-0.20499299466609955,-14.93402099609375,-0.21176882088184357,0.05689137801527977,-0.06711318343877792,0.0,0.0,0.0,1.5662629608293093,70,255,64,64
178,6.074578501999895,21.126970291137695,-0.20719002187252045,-14.936141967773438,-0.2334080934524536,0.06109556183218956,-0.04807978495955467,0.0,0.0,0.0,1.5661182180240634,70,255,64,64
179,6.115544101999603,21.134809494018555,-0.20865695178508759,-14.938385009765625,-0.2512427568435669,0.06616779416799545,-0.0597880519926548,0.0,0.0,0.0,1.5662341986895363,70,255,64,64
180,6.150601933999951,21.145748138427734,-0.20933395624160767,-14.94073486328125,-0.2201864868402481,0.06486321240663528,-0.06727253645658493,0.0,0.0,0.0,1.5668263525579156,70,255,64,64
181,6.18025059699994,21.156665802001953,-0.20839250087738037,-14.942474365234375,-0.21671399474143982,0.07125389575958252,-0.056972600519657135,0.0,0.0,0.0,1.5668419320502924,70,255,64,64
182,6.212381497000024,21.1655330657959,-0.20707926154136658,-14.943496704101562,-0.22319184243679047,0.08478916436433792,-0.03917669877409935,0.0,0.0,0.0,1.5665436580082035,70,255,64,64
183,6.251186151999718,21.172632217407227,-0.2052108198404312,-14.944564819335938,-0.2384973168373108,0.09366558492183685,-0.03133052960038185,0.0,0.0,0.0,1.5665119663912317,70,255,64,64
184,6.279850561999865,21.180871963500977,-0.20463302731513977,-14.9459228515625,-0.26680412888526917,0.08896192908287048,-0.04726405814290047,0.0,0.0,0.0,1.566358301996334,70,255,64,64
185,6.317725989999872,21.18918228149414,-0.20535074174404144,-14.94805908203125,-0.30729249119758606,0.08800415694713593,-0.06391871720552444,0.0,0.0,0.0,1.5663524430419358,70,255,64,64
186,6.358157427999686,21.19692039489746,-0.20580656826496124,-14.950668334960938,-0.29863089323043823,0.08237921446561813,-0.04765627533197403,0.0,0.0,0.0,1.566104902218613,70,255,64,64
187,6.382525326999712,21.201038360595703,-0.2060217708349228,-14.952835083007812,-0.30863067507743835,0.08970653265714645,-0.0643385574221611,0.0,0.0,0.0,1.5661100953827387,70,255,64,64
188,6.424505513999975,21.20846939086914,-0.2062654346227646,-14.952926635742188,-0.30326324701309204,0.09369838982820511,-0.0762815847992897,0.0,0.0,0.0,1.5660457800424132,70,255,64,64
189,6.4603601849998995,21.215534210205078,-0.2062980681657791,-14.952377319335938,-0.3078933656215668,0.09711605310440063,-0.059919435530900955,0.0,0.0,0.0,1.5659826631245783,70,255,64,64
190,6.498166083999877,21.220806121826172,-0.2058665156364441,-14.951583862304688,-0.32005423307418823,0.10424841940402985,-0.03823993727564812,0.0,0.0,0.0,1.565922608841997,70,255,64,64
191,6.522453365999809,21.224300384521484,-0.20515559613704681,-14.951004028320312,-0.33673590421676636,0.09550616890192032,-0.02493663690984249,0.0,0.0,0.0,1.5660267384406192,70,255,64,64
192,6.553565519999665,21.233070373535156,-0.20735526084899902,-14.952804565429688,-0.31745705008506775,0.08842260390520096,-0.049060408025979996,0.0,0.0,0.0,1.5657416470459262,70,255,64,64
193,6.587203310999939,21.238100051879883,-0.2087307870388031,-14.955215454101562,-0.34324410557746887,0.09238488972187042,-0.06483375281095505,0.0,0.0,0.0,1.5649032839347692,70,255,64,64
194,6.618111662999581,21.24089813232422,-0.20961515605449677,-14.957550048828125,-0.35199445486068726,0.09386960417032242,-0.05382753163576126,0.0,0.0,0.0,1.565083979414731,70,255,64,64
195,6.651918580999791,21.242633819580078,-0.21089254319667816,-14.9603271484375,-0.36958131194114685,0.09365932643413544,-0.054903410375118256,0.0,0.0,0.0,1.5654222008731713,70,255,64,64
196,6.684492470999885,21.243406295776367,-0.21394658088684082,-14.964813232421875,-0.39596953988075256,0.08771731704473495,-0.04876323789358139,0.0,0.0,0.0,1.5648050132905453,70,255,64,64
197,6.718135400999927,21.242250442504883,-0.21669435501098633,-14.968780517578125,-0.408464640378952,0.08353471755981445,-0.058566268533468246,0.0,0.0,0.0,1.5649437639833386,70,255,64,64
198,6.754310587999953,21.239755630493164,-0.21934297680854797,-14.973983764648438,-0.3940546214580536,0.0924677774310112,-0.058578360825777054,0.0,0.0,0.0,1.564642160989887,70,255,64,64
199,6.787167071999647,21.239459991455078,-0.22183901071548462,-14.977584838867188,-0.4128659665584564,0.09781435132026672,-0.05711596831679344,0.0,0.0,0.0,1.5643805054127866,70,255,64,64
200,6.820041780999873,21.240758895874023,-0.2246808558702469,-14.981109619140625,-0.4107670187950134,0.09503941982984543,-0.08073056489229202,0.0,0.0,0.0,1.5641835646501754,70,255,64,64
201,6.86060511200003,21.239973068237305,-0.22694815695285797,-14.985397338867188,-0.43068793416023254,0.09889478236436844,-0.06794368475675583,0.0,0.0,0.0,1.564407003865633,70,255,64,64
202,6.8980527169997,21.237464904785156,-0.2285061925649643,-14.988998413085938,-0.4510036110877991,0.10615327209234238,-0.06558208167552948,0.0,0.0,0.0,1.5646777141904396,70,255,64,64
203,6.929046732999723,21.236040115356445,-0.23103030025959015,-14.99224853515625,-0.4411550462245941,0.10684636980295181,-0.040092889219522476,0.0,0.0,0.0,1.5648516186096217,70,255,64,64
204,6.962395398999888,21.23298454284668,-0.23399505019187927,-14.995193481445312,-0.4493545591831207,0.1119692251086235,-0.024045972153544426,0.0,0.0,0.0,1.5644520112880553,70,255,64,64
205,7.000721748999695,21.228796005249023,-0.23558488488197327,-14.997283935546875,-0.4559157192707062,0.11292718350887299,-0.015306851826608181,0.0,0.0,0.0,1.564880780223558,70,255,64,64
206,7.029041463999874,21.22275733947754,-0.2366490364074707,-14.99896240234375,-0.48540645837783813,0.11122584342956543,-0.021502943709492683,0.0,0.0,0.0,1.5650040845820288,70,255,64,64
207,7.063677498999823,21.21693992614746,-0.23975643515586853,-14.99822998046875,-0.49925437569618225,0.10748282074928284,-0.00577984843403101,0.0,0.0,0.0,1.5650871752080393,70,255,64,64
208,7.108962119999887,21.209197998046875,-0.2424924671649933,-14.99725341796875,-0.5312644243240356,0.1059223860502243,0.008390125818550587,0.0,0.0,0.0,1.565412347177138,70,255,64,64
209,7.136284897999758,21.2001895904541,-0.24449975788593292,-14.99639892578125,-0.5281227231025696,0.10800439864397049,-0.002689568791538477,0.0,0.0,0.0,1.5654259292986974,70,255,64,64
210,7.18504127199958,21.189645767211914,-0.24759645760059357,-14.996810913085938,-0.544803261756897,0.10301904380321503,-0.018237683922052383,0.0,0.0,0.0,1.56520102534464,70,255,64,64
211,7.209291268000015,21.183555603027344,-0.251093327999115,-14.9981689453125,-0.5225288271903992,0.10601061582565308,-0.01567048951983452,0.0,0.0,0.0,1.5653688044933152,70,255,64,64
212,7.2332978949998505,21.176597595214844,-0.25395089387893677,-14.999801635742188,-0.5189411044120789,0.1000722274184227,-0.018606673926115036,0.0,0.0,0.0,1.5658672150913235,70,255,64,64
213,7.271115357999861,21.168991088867188,-0.25643685460090637,-15.00103759765625,-0.510235607624054,0.09129665046930313,-0.0029589186888188124,0.0,0.0,0.0,1.566040453720233,70,255,64,64
214,7.3006225879998965,21.162410736083984,-0.2588074505329132,-15.00457763671875,-0.5217697024345398,0.09732671082019806,-0.00956779159605503,0.0,0.0,0.0,1.5660668190150249,70,255,64,64
215,7.341413456999817,21.155946731567383,-0.26077479124069214,-15.010208129882812,-0.5538512468338013,0.10210304707288742,-0.027214495465159416,0.0,0.0,0.0,1.566108098011921,70,255,64,64
216,7.375000267999894,21.1461124420166,-0.26246145367622375,-15.016738891601562,-0.5409568548202515,0.10873166471719742,-0.02035336196422577,0.0,0.0,0.0,1.5664220847044414,70,255,64,64
217,7.40649722299986,21.136560440063477,-0.2631378471851349,-15.021148681640625,-0.589525580406189,0.11086685955524445,-0.0048655192367732525,0.0,0.0,0.0,1.5659423162340638,70,255,64,64
218,7.4454534649999005,21.126266479492188,-0.2639347016811371,-15.026092529296875,-0.5827676653862,0.11700902879238129,0.00017605695757083595,0.0,0.0,0.0,1.5662231465710126,70,255,64,64
219,7.478044991999923,21.112525939941406,-0.26437193155288696,-15.031631469726562,-0.5890080332756042,0.12015271186828613,0.01879158429801464,0.0,0.0,0.0,1.5664889300478024,70,255,64,64
220,7.518001225999797,21.103315353393555,-0.26419326663017273,-15.034759521484375,-0.6215355396270752,0.12567560374736786,-1.5930389054119587e-05,0.0,0.0,0.0,1.5664649615979918,70,255,64,64
221,7.549388722000003,21.089170455932617,-0.2635890245437622,-15.038864135742188,-0.6406726837158203,0.1282210350036621,-0.014854222536087036,0.0,0.0,0.0,1.5664677579171362,70,255,64,64
222,7.5842988169997625,21.073955535888672,-0.2636304199695587,-15.047393798828125,-0.6478590369224548,0.11178965121507645,-0.0014814602909609675,0.0,0.0,0.0,1.5664413926223446,70,255,64,64
223,7.616906929999914,21.06117057800293,-0.26352107524871826,-15.0531005859375,-0.6386207342147827,0.10761337727308273,0.011517621576786041,0.0,0.0,0.0,1.5670922691927598,70,255,64,64
224,7.640580260999741,21.047908782958984,-0.2631772756576538,-15.057754516601562,-0.6127269268035889,0.10914034396409988,0.017986904829740524,0.0,0.0,0.0,1.5665737517285214,70,255,64,64
225,7.67703843199979,21.03544044494629,-0.26291877031326294,-15.062881469726562,-0.6251049041748047,0.1079590693116188,0.013227946124970913,0.0,0.0,0.0,1.5668955947462575,70,255,64,64
226,7.710678619999726,21.02698516845703,-0.26343753933906555,-15.069503784179688,-0.6203011870384216,0.10941315442323685,0.03032524138689041,0.0,0.0,0.0,1.5672865467942811,70,255,64,64
227,7.747793860999991,21.016847610473633,-0.26348820328712463,-15.07537841796875,-0.6478861570358276,0.11482251435518265,0.024175716564059258,0.0,0.0,0.0,1.5676268987815933,70,255,64,64
228,7.786228515999937,21.002954483032227,-0.26292216777801514,-15.081756591796875,-0.6201210021972656,0.11263196170330048,0.034427132457494736,0.0,0.0,0.0,1.5672239625086644,70,255,64,64
229,7.820135040999958,20.994190216064453,-0.2626800537109375,-15.088043212890625,-0.5967493653297424,0.11493592709302902,-0.006003785412758589,0.0,0.0,0.0,1.5672552546514726,70,255,64,64
230,7.859376878999683,20.98725700378418,-0.2625088393688202,-15.095489501953125,-0.5965845584869385,0.11886782199144363,0.002157350070774555,0.0,0.0,0.0,1.567732493118815,70,255,64,64
231,7.892670471999736,20.979108810424805,-0.2617041766643524,-15.102401733398438,-0.6030855178833008,0.13296404480934143,-0.008401409722864628,0.0,0.0,0.0,1.567787487395325,70,255,64,64
232,7.927346003999901,20.969158172607422,-0.2602171301841736,-15.1085205078125,-0.61147540807724,0.13429592549800873,0.012268882244825363,0.0,0.0,0.0,1.5681363614981254,70,255,64,64
233,7.962583234999784,20.960472106933594,-0.2599486708641052,-15.113616943359375,-0.6085636615753174,0.13255880773067474,0.04274754971265793,0.0,0.0,0.0,1.568170316802024,70,255,64,64
234,7.994467501999679,20.94878578186035,-0.25951969623565674,-15.118270874023438,-0.6215469241142273,0.13184520602226257,0.05741871893405914,0.0,0.0,0.0,1.568170316802024,70,255,64,64
235,8.035486732999743,20.93769645690918,-0.2588793635368347,-15.121063232421875,-0.6094824075698853,0.12416446208953857,0.08651823550462723,0.0,0.0,0.0,1.5688559476246648,70,255,64,64
236,8.059079958999973,20.925914764404297,-0.25817248225212097,-15.122467041015625,-0.607076108455658,0.11562564224004745,0.10610105097293854,0.0,0.0,0.0,1.5688559476246648,70,255,64,64
237,8.101514504999614,20.919130325317383,-0.2554638385772705,-15.123992919921875,-0.6064148545265198,0.12379695475101471,0.1178172305226326,0.0,0.0,0.0,1.5684956219291772,70,255,64,64
238,8.12309642199989,20.910913467407227,-0.25244927406311035,-15.124679565429688,-0.6105964779853821,0.1291573941707611,0.11963250488042831,0.0,0.0,0.0,1.568505608783265,70,255,64,64
239,8.154358183999648,20.901397705078125,-0.24894903600215912,-15.124618530273438,-0.5971507430076599,0.14444658160209656,0.14161327481269836,0.0,0.0,0.0,1.5682632611240677,70,255,64,64
240,8.195607775999633,20.890663146972656,-0.24399413168430328,-15.122604370117188,-0.5865120887756348,0.14447015523910522,0.16514688730239868,0.0,0.0,0.0,1.5682740469264826,70,255,64,64
241,8.228515618999609,20.884540557861328,-0.2400331050157547,-15.119277954101562,-0.5360227823257446,0.14890150725841522,0.1704406887292862,0.0,0.0,0.0,1.5679828302612824,70,255,64,64
242,8.258387824999772,20.877483367919922,-0.23588904738426208,-15.116104125976562,-0.5544103384017944,0.15087082982063293,0.15098132193088531,0.0,0.0,0.0,1.5677579263072252,70,255,64,64
243,8.295841296999697,20.86844825744629,-0.23177558183670044,-15.113113403320312,-0.583331823348999,0.14596985280513763,0.1681482344865799,0.0,0.0,0.0,1.5677017336082246,70,255,64,64
244,8.331273228999635,20.861692428588867,-0.22923746705055237,-15.110519409179688,-0.6024014949798584,0.14071230590343475,0.1448403149843216,0.0,0.0,0.0,1.5670900055058332,70,255,64,64
245,8.363235106999582,20.85502052307129,-0.22779203951358795,-15.108444213867188,-0.6234910488128662,0.13431334495544434,0.13428543508052826,0.0,0.0,0.0,1.5670838802353262,70,255,64,64
246,8.402999178999835,20.848295211791992,-0.2261713743209839,-15.106643676757812,-0.6015734672546387,0.13978677988052368,0.145169198513031,0.0,0.0,0.0,1.5678934812067102,70,255,64,64
247,8.428901457999928,20.841110229492188,-0.22409160435199738,-15.10498046875,-0.5735998153686523,0.14354652166366577,0.1361370086669922,0.0,0.0,0.0,1.5680050676563846,70,255,64,64
248,8.461643578999883,20.839696884155273,-0.22114315629005432,-15.10333251953125,-0.5871283411979675,0.1450449377298355,0.12665018439292908,0.0,0.0,0.0,1.5674246316968017,70,255,64,64
249,8.500454303999959,20.83841323852539,-0.21786312758922577,-15.101760864257812,-0.5573163032531738,0.14209584891796112,0.13057734072208405,0.0,0.0,0.0,1.5673850837546142,70,255,64,64
250,8.532290486999955,20.835529327392578,-0.21440137922763824,-15.100067138671875,-0.5738463401794434,0.1451650708913803,0.11750560998916626,0.0,0.0,0.0,1.567313178405182,70,255,64,64
251,8.563983422999627,20.831144332885742,-0.21094682812690735,-15.098190307617188,-0.5539342761039734,0.13393722474575043,0.1427183896303177,0.0,0.0,0.0,1.567782427389254,70,255,64,64
252,8.601195148999977,20.8299617767334,-0.2083768993616104,-15.100738525390625,-0.5595712065696716,0.13516218960285187,0.11023528128862381,0.0,0.0,0.0,1.567702665714606,70,255,64,64
253,8.633545580999908,20.827484130859375,-0.20614415407180786,-15.10308837890625,-0.5394502282142639,0.12940581142902374,0.08001568168401718,0.0,0.0,0.0,1.5680040023919486,70,255,64,64
254,8.66623938299972,20.82366371154785,-0.2037564516067505,-15.105148315429688,-0.5425258278846741,0.12952080368995667,0.07772988826036453,0.0,0.0,0.0,1.5679123896504499,70,255,64,64
255,8.703749453,20.81974220275879,-0.20159535109996796,-15.108291625976562,-0.5504999160766602,0.12462986260652542,0.04281551018357277,0.0,0.0,0.0,1.5680781714283072,70,255,64,64
256,8.736295202999827,20.819549560546875,-0.20056378841400146,-15.112899780273438,-0.5589954257011414,0.12456976622343063,0.0499052032828331,0.0,0.0,0.0,1.568458870306134,70,255,64,64
257,8.768240206999963,20.81797981262207,-0.19901686906814575,-15.116531372070312,-0.5333303809165955,0.12761572003364563,0.06956052035093307,0.0,0.0,0.0,1.5680271718934322,70,255,64,64
258,8.805037294999693,20.81389045715332,-0.19672037661075592,-15.120208740234375,-0.5379012823104858,0.12400462478399277,0.06438081711530685,0.0,0.0,0.0,1.5680158534587993,70,255,64,64
259,8.83734864400003,20.811918258666992,-0.19432075321674347,-15.12286376953125,-0.5454445481300354,0.1222124770283699,0.07185307145118713,0.0,0.0,0.0,1.567248197274584,70,255,64,64
260,8.884218660999977,20.81155776977539,-0.1917136162519455,-15.124801635742188,-0.5067213773727417,0.11659843474626541,0.08935238420963287,0.0,0.0,0.0,1.5675857529427515,70,255,64,64
261,8.908375441999851,20.809894561767578,-0.18902984261512756,-15.1258544921875,-0.5238723158836365,0.11054717749357224,0.10067044943571091,0.0,0.0,0.0,1.567533022353168,70,255,64,64
262,8.940997616999994,20.80680274963379,-0.18639445304870605,-15.12689208984375,-0.5027865767478943,0.10545291751623154,0.07518049329519272,0.0,0.0,0.0,1.5675310249823504,70,255,64,64
263,8.975071782999748,20.80697250366211,-0.18336109817028046,-15.126678466796875,-0.4966930150985718,0.10215257853269577,0.10404052585363388,0.0,0.0,0.0,1.567092535508869,70,255,64,64
264,9.013307335999798,20.806413650512695,-0.18101362884044647,-15.126174926757812,-0.5054192543029785,0.08942882716655731,0.08305686712265015,0.0,0.0,0.0,1.5673009278641676,70,255,64,64
265,9.049113658999886,20.804243087768555,-0.17889106273651123,-15.126144409179688,-0.5094461441040039,0.09001854807138443,0.07731053978204727,0.0,0.0,0.0,1.5671051855240468,70,255,64,64
266,9.084877483999662,20.800365447998047,-0.17664968967437744,-15.12591552734375,-0.5026813745498657,0.08679291605949402,0.07027740031480789,0.0,0.0,0.0,1.5673592510920402,70,255,64,64
267,9.115477409999585,20.80257225036621,-0.1755395531654358,-15.128662109375,-0.49357134103775024,0.07569950073957443,0.0687774121761322,0.0,0.0,0.0,1.5678332937660744,70,255,64,64
268,9.146404961999906,20.803329467773438,-0.17439748346805573,-15.131484985351562,-0.47918781638145447,0.0758926048874855,0.07054239511489868,0.0,0.0,0.0,1.5673761621649622,70,255,64,64
269,9.178748585999983,20.802261352539062,-0.17310406267642975,-15.133575439453125,-0.487440288066864,0.07297062128782272,0.07690839469432831,0.0,0.0,0.0,1.5674866833502006,70,255,64,64
270,9.215576176000013,20.802257537841797,-0.1722521185874939,-15.136184692382812,-0.4862099885940552,0.07643286138772964,0.07124926894903183,0.0,0.0,0.0,1.5676071913895266,70,255,64,64
271,9.247797282999727,20.8043155670166,-0.1726844161748886,-15.138885498046875,-0.4800123870372772,0.07306449860334396,0.07931527495384216,0.0,0.0,0.0,1.5682147915922282,70,255,64,64
272,9.28004483199993,20.80483627319336,-0.17294339835643768,-15.140670776367188,-0.47952398657798767,0.07066135853528976,0.0827026516199112,0.0,0.0,0.0,1.5688016191384273,70,255,64,64
273,9.31699704499988,20.803756713867188,-0.17290851473808289,-15.1424560546875,-0.4733586013317108,0.06687216460704803,0.07325400412082672,0.0,0.0,0.0,1.5693237318701372,70,255,64,64
274,9.349318858999595,20.804651260375977,-0.1710634082555771,-15.142868041992188,-0.4713192582130432,0.06199901923537254,0.06301417201757431,0.0,0.0,0.0,1.569496704182938,70,255,64,64
275,9.381710796999869,20.808032989501953,-0.16752737760543823,-15.141571044921875,-0.46179547905921936,0.06694329530000687,0.07624666392803192,0.0,0.0,0.0,1.5693793919369199,70,255,64,64
276,9.41893735099984,20.8100528717041,-0.16305114328861237,-15.139694213867188,-0.4491712152957916,0.07112854719161987,0.07584924250841141,0.0,0.0,0.0,1.5690037530651642,70,255,64,64
277,9.451234045999627,20.8091983795166,-0.15946811437606812,-15.138076782226562,-0.47747278213500977,0.07507400214672089,0.08169221878051758,0.0,0.0,0.0,1.5695596879427183,70,255,64,64
278,9.48352443199974,20.809978485107422,-0.15744031965732574,-15.1397705078125,-0.5015491843223572,0.07210201770067215,0.06560405343770981,0.0,0.0,0.0,1.5698256045775627,70,255,64,64
279,9.520799023999643,20.810007095336914,-0.15567509829998016,-15.1424560546875,-0.49580979347229004,0.07908622175455093,0.06588384509086609,0.0,0.0,0.0,1.5696012332557234,70,255,64,64
280,9.553071215999807,20.8080997467041,-0.15369664132595062,-15.144607543945312,-0.5132099986076355,0.07930216193199158,0.07036329805850983,0.0,0.0,0.0,1.5697639523983273,70,255,64,64
281,9.585374099999626,20.80509376525879,-0.1515529900789261,-15.145904541015625,-0.48423656821250916,0.07367659360170364,0.10367250442504883,0.0,0.0,0.0,1.5697011017966016,70,255,64,64
282,9.622779119999905,20.810483932495117,-0.15263748168945312,-15.14581298828125,-0.4860164225101471,0.07203628867864609,0.10010247677564621,0.0,0.0,0.0,1.5696240032830437,70,255,64,64
283,9.654917868999746,20.81239128112793,-0.15310576558113098,-15.145355224609375,-0.49240899085998535,0.06279151886701584,0.09739623963832855,0.0,0.0,0.0,1.5695026962953906,70,255,64,64
284,9.697643970999707,20.811737060546875,-0.1536102294921875,-15.144256591796875,-0.5338450074195862,0.054980192333459854,0.11079376935958862,0.0,0.0,0.0,1.5696490369972904,70,255,64,64
285,9.731150026999785,20.80990219116211,-0.15448907017707825,-15.142669677734375,-0.5469164848327637,0.051857005804777145,0.10487273335456848,0.0,0.0,0.0,1.5699280031214762,70,255,64,64
286,9.758077427999979,20.81065559387207,-0.15637026727199554,-15.140716552734375,-0.5545704364776611,0.051903389394283295,0.09644925594329834,0.0,0.0,0.0,1.570069283817305,70,255,64,64
287,9.789827435000007,20.808977127075195,-0.15790316462516785,-15.13836669921875,-0.5801817774772644,0.05494053661823273,0.1058894470334053,0.0,0.0,0.0,1.5700145558569039,70,255,64,64
288,9.827493781999692,20.80426788330078,-0.15892215073108673,-15.13580322265625,-0.5525609254837036,0.06781348586082458,0.10604764521121979,0.0,0.0,0.0,1.5705700912602945,70,255,64,64
289,9.861809941999581,20.803213119506836,-0.15831612050533295,-15.132919311523438,-0.5471426844596863,0.07838766276836395,0.11619111150503159,0.0,0.0,0.0,1.5708931327005209,70,255,64,64
290,9.89308878699967,20.804834365844727,-0.15633225440979004,-15.129379272460938,-0.503524124622345,0.0945177674293518,0.12791067361831665,0.0,0.0,0.0,1.571431890189044,70,255,64,64
291,9.929988015999697,20.80531883239746,-0.15393982827663422,-15.125595092773438,-0.5298187732696533,0.100150927901268,0.12922748923301697,0.0,0.0,0.0,1.571605528292117,70,255,64,64
292,9.961776122999709,20.80340576171875,-0.1511513739824295,-15.122695922851562,-0.5400460958480835,0.11525837332010269,0.09222370386123657,0.0,0.0,0.0,1.5715896824836313,70,255,64,64
293,9.998596065999664,20.804948806762695,-0.1468009501695633,-15.121841430664062,-0.5353031754493713,0.1472020447254181,0.10745835304260254,0.0,0.0,0.0,1.57203429722762,70,255,64,64
294,10.033630180999808,20.80607795715332,-0.13991928100585938,-15.120712280273438,-0.5366414785385132,0.1716967523097992,0.11852413415908813,0.0,0.0,0.0,1.5718297664559018,70,255,64,64
295,10.064113405999706,20.805280685424805,-0.13354119658470154,-15.1197509765625,-0.5144779086112976,0.20007087290287018,0.10093037784099579,0.0,0.0,0.0,1.5715352208393392,70,255,64,64
296,10.096166461999928,20.80350685119629,-0.12633457779884338,-15.11846923828125,-0.49440187215805054,0.2234959900379181,0.09847462922334671,0.0,0.0,0.0,1.5712922073898694,70,255,64,64
297,10.133151386000009,20.810298919677734,-0.11842461675405502,-15.11688232421875,-0.5102224349975586,0.2503565847873688,0.0995781347155571,0.0,0.0,0.0,1.5709904712383633,70,255,64,64
298,10.165409993999674,20.813993453979492,-0.10930173099040985,-15.11529541015625,-0.5496055483818054,0.28537672758102417,0.0991545245051384,0.0,0.0,0.0,1.5707549146399458,70,255,64,64
299,10.19776372899969,20.814985275268555,-0.09903588891029358,-15.11346435546875,-0.5309809446334839,0.3176709711551666,0.11079918593168259,0.0,0.0,0.0,1.5696747365018098,70,255,64,64
300,10.23511112999995,20.817581176757812,-0.08526071161031723,-15.111343383789062,-0.525856077671051,0.3557901680469513,0.09451132267713547,0.0,0.0,0.0,1.5688547492021743,70,255,64,64
301,10.267116905999956,20.82096290588379,-0.07328372448682785,-15.11041259765625,-0.5284139513969421,0.39194026589393616,0.09297942370176315,0.0,0.0,0.0,1.568732643266194,70,255,64,64
302,10.299748562999866,20.822662353515625,-0.059966135770082474,-15.109375,-0.5292935371398926,0.4361562132835388,0.0753103494644165,0.0,0.0,0.0,1.5681756431242042,70,255,64,64
303,10.337697461999596,20.8218994140625,-0.04521015286445618,-15.108749389648438,-0.5536004900932312,0.4783133864402771,0.06870924681425095,0.0,0.0,0.0,1.5683809728442493,70,255,64,64
304,10.369482874999903,20.823022842407227,-0.027956809848546982,-15.108489990234375,-0.5356881022453308,0.5288904309272766,0.08244550973176956,0.0,0.0,0.0,1.5682835011483522,70,255,64,64
305,10.401507998999932,20.826311111450195,-0.0079846465960145,-15.108627319335938,-0.5469583868980408,0.5887905955314636,0.06794828921556473,0.0,0.0,0.0,1.5685578067406305,70,255,64,64
306,10.438638788999924,20.826934814453125,0.019170263782143593,-15.109115600585938,-0.5646779537200928,0.64214026927948,0.06667646765708923,0.0,0.0,0.0,1.568712536399964,70,255,64,64
307,10.470946097999786,20.824169158935547,0.042262595146894455,-15.109420776367188,-0.5845630168914795,0.6920191645622253,0.05086733028292656,0.0,0.0,0.0,1.5689745914512279,70,255,64,64
308,10.50322555799994,20.825782775878906,0.06497648358345032,-15.108413696289062,-0.5732688903808594,0.7479461431503296,0.057914890348911285,0.0,0.0,0.0,1.569866350942241,70,255,64,64
309,10.540585001999716,20.827360153198242,0.08907151222229004,-15.106964111328125,-0.5629150867462158,0.8098215460777283,0.0461370013654232,0.0,0.0,0.0,1.5710348128705132,70,255,64,64
310,10.572852286999932,20.82649040222168,0.11485780775547028,-15.104888916015625,-0.5929256081581116,0.8532511591911316,0.08584080636501312,0.0,0.0,0.0,1.5723705213152424,70,255,64,64
311,10.605016839999735,20.82343292236328,0.142537459731102,-15.102584838867188,-0.5892081260681152,0.9131920337677002,0.07555889338254929,0.0,0.0,0.0,1.5746520514211133,70,255,64,64
312,10.642418040999928,20.8253116607666,0.17991919815540314,-15.102767944335938,-0.6078466176986694,0.9919434785842896,0.07578935474157333,0.0,0.0,0.0,1.57622331646426,70,255,64,64
313,10.674357491999672,20.82383918762207,0.21231460571289062,-15.10272216796875,-0.616844892501831,1.0605988502502441,0.07189442962408066,0.0,0.0,0.0,1.5781221503214866,70,255,64,64
314,10.70673455699989,20.8199520111084,0.24693270027637482,-15.1024169921875,-0.6492874026298523,1.1290876865386963,0.06601893156766891,0.0,0.0,0.0,1.5803638661690607,70,255,64,64
315,10.744238472999768,20.81569480895996,0.2839950621128082,-15.10302734375,-0.6715466380119324,1.1845208406448364,0.07272548973560333,0.0,0.0,0.0,1.5839607315373219,70,255,64,64
316,10.775828051999724,20.816162109375,0.3241960108280182,-15.105514526367188,-0.6742623448371887,1.2487934827804565,0.09946675598621368,0.0,0.0,0.0,1.5854780675683944,70,255,64,64
317,10.808598087999599,20.813894271850586,0.3664249777793884,-15.107070922851562,-0.6893290281295776,1.3158118724822998,0.09561628103256226,0.0,0.0,0.0,1.588322856244817,70,255,64,64
318,10.845760406999943,20.80764389038086,0.42229703068733215,-15.108779907226562,-0.6878848671913147,1.4061648845672607,0.08146356046199799,0.0,0.0,0.0,1.592943041261941,70,255,64,64
319,10.878011791999597,20.806129455566406,0.4698944091796875,-15.110458374023438,-0.6638528108596802,1.4746235609054565,0.07548417150974274,0.0,0.0,0.0,1.5954625248112104,70,255,64,64
320,10.910573632999785,20.808025360107422,0.5198432803153992,-15.111907958984375,-0.6527895927429199,1.5389587879180908,0.07201582193374634,0.0,0.0,0.0,1.599244746191341,70,255,64,64
321,10.947398944999804,20.808082580566406,0.5718699097633362,-15.113662719726562,-0.6539511680603027,1.6082122325897217,0.04043806344270706,0.0,0.0,0.0,1.6037834384791085,70,255,64,64
322,10.980054784000004,20.805461883544922,0.6257855892181396,-15.115814208984375,-0.6667646765708923,1.6556810140609741,0.03778102248907089,0.0,0.0,0.0,1.608757823921213,70,255,64,64
323,11.012340926999968,20.8076114654541,0.6807689070701599,-15.120147705078125,-0.6431052088737488,1.697695016860962,0.06531232595443726,0.0,0.0,0.0,1.6119087429649404,70,255,64,64
324,11.049537416000021,20.80931282043457,0.7516021132469177,-15.125701904296875,-0.6592217683792114,1.7599585056304932,0.055614810436964035,0.0,0.0,0.0,1.6178583779982318,70,255,64,64
325,11.08180603899973,20.808034896850586,0.8099363446235657,-15.12957763671875,-0.6607788801193237,1.8031034469604492,0.05910399556159973,0.0,0.0,0.0,1.6230323673640379,70,255,64,64
326,11.114145297999585,20.804553985595703,0.8694050908088684,-15.132797241210938,-0.6632483601570129,1.841019630432129,0.05990215763449669,0.0,0.0,0.0,1.6258334801985832,70,255,64,64
327,11.15153009300002,20.807458877563477,0.9320074319839478,-15.135955810546875,-0.6378580927848816,1.8800528049468994,0.07372026890516281,0.0,0.0,0.0,1.6325214766440992,70,255,64,64
328,11.183919742999933,20.80772590637207,0.9954134225845337,-15.137939453125,-0.6725558638572693,1.906841516494751,0.1026952937245369,0.0,0.0,0.0,1.6351677266612563,70,255,64,64
329,11.21603867299973,20.805343627929688,1.059518575668335,-15.138900756835938,-0.6614441275596619,1.9426153898239136,0.10384826362133026,0.0,0.0,0.0,1.6404218771758736,70,255,64,64
330,11.25318619799964,20.802146911621094,1.141671061515808,-15.138992309570312,-0.723475992679596,1.9744727611541748,0.1108693778514862,0.0,0.0,0.0,1.6456372786966305,70,255,64,64
331,11.284959516999606,20.801265716552734,1.2089565992355347,-15.13720703125,-0.7062099575996399,1.9992774724960327,0.12826210260391235,0.0,0.0,0.0,1.649149988174445,70,255,64,64
332,11.317437101999985,20.798194885253906,1.2769421339035034,-15.135086059570312,-0.709272027015686,2.034674644470215,0.116834856569767,0.0,0.0,0.0,1.6545693878347016,70,255,64,64
333,11.35525913399988,20.792795181274414,1.345640778541565,-15.132827758789062,-0.7225186824798584,2.059387683868408,0.1210101917386055,0.0,0.0,0.0,1.6612434026844947,70,255,64,64
334,11.387640452999676,20.78951644897461,1.414703607559204,-15.13043212890625,-0.7189423441886902,2.0798304080963135,0.12781807780265808,0.0,0.0,0.0,1.6654440066718768,70,255,64,64
335,11.419782384999962,20.78828239440918,1.4845436811447144,-15.127944946289062,-0.7111693024635315,2.112041711807251,0.1342896819114685,0.0,0.0,0.0,1.6681067682877924,70,255,64,64
336,11.45702124499985,20.78325653076172,1.5729790925979614,-15.124984741210938,-0.747924268245697,2.1485719680786133,0.09430602937936783,0.0,0.0,0.0,1.6733085876869898,70,255,64,64
337,11.489225817999795,20.775358200073242,1.6442803144454956,-15.122756958007812,-0.7940382361412048,2.1663529872894287,0.12098013609647751,0.0,0.0,0.0,1.6761801411323676,70,255,64,64
338,11.521976375999657,20.77157974243164,1.7159943580627441,-15.122055053710938,-0.8064103126525879,2.170865535736084,0.14281216263771057,0.0,0.0,0.0,1.6809689042464937,70,255,64,64
339,11.559215276000032,20.7667179107666,1.78813636302948,-15.121627807617188,-0.8364556431770325,2.194951295852661,0.12336423993110657,0.0,0.0,0.0,1.6859783102569326,70,255,64,64
340,11.59100910899997,20.759479522705078,1.8608084917068481,-15.121551513671875,-0.8253747820854187,2.2129921913146973,0.10383965075016022,0.0,0.0,0.0,1.6886428029275569,70,255,64,64
341,11.623812082999848,20.7502384185791,1.9338157176971436,-15.121658325195312,-0.8289719223976135,2.2292416095733643,0.09956322610378265,0.0,0.0,0.0,1.693319047485627,70,255,64,64
342,11.66108713199992,20.74493408203125,2.026146173477173,-15.119415283203125,-0.8351268172264099,2.2456111907958984,0.11746185272932053,0.0,0.0,0.0,1.6983344456085188,70,255,64,64
343,11.692841321999822,20.737817764282227,2.1004114151000977,-15.1173095703125,-0.8524674773216248,2.2573277950286865,0.11970610171556473,0.0,0.0,0.0,1.70060918465361,70,255,64,64
344,11.725191948999964,20.72832489013672,2.17497181892395,-15.114852905273438,-0.8522591590881348,2.2791202068328857,0.10538806766271591,0.0,0.0,0.0,1.7040692966998954,70,255,64,64
345,11.762635519000014,20.718791961669922,2.250556707382202,-15.112503051757812,-0.8556153774261475,2.2947874069213867,0.09007352590560913,0.0,0.0,0.0,1.7085238330972166,70,255,64,64
346,11.794426813999962,20.713008880615234,2.327953815460205,-15.1085205078125,-0.8399844765663147,2.3146395683288574,0.10627476871013641,0.0,0.0,0.0,1.7111470467709444,70,255,64,64
347,11.826993590999791,20.704757690429688,2.4054529666900635,-15.104110717773438,-0.8675773739814758,2.3225631713867188,0.11477939039468765,0.0,0.0,0.0,1.7147644184795992,70,255,64,64
348,11.86446632399975,20.69106674194336,2.5023646354675293,-15.099090576171875,-0.8782709836959839,2.337951183319092,0.09126538038253784,0.0,0.0,0.0,1.718705497418753,70,255,64,64
349,11.89665385699982,20.681461334228516,2.5809619426727295,-15.096908569335938,-0.8900735378265381,2.3525092601776123,0.08299247920513153,0.0,0.0,0.0,1.7233788124996239,70,255,64,64
350,11.928980395999588,20.673715591430664,2.6605355739593506,-15.095870971679688,-0.8849246501922607,2.3663978576660156,0.07100862264633179,0.0,0.0,0.0,1.7254586081529213,70,255,64,64
351,11.966308051999931,20.663347244262695,2.740004301071167,-15.094802856445312,-0.8986995816230774,2.3726675510406494,0.061768222600221634,0.0,0.0,0.0,1.7295405683137404,70,255,64,64
352,11.998634553999636,20.650028228759766,2.819598436355591,-15.094345092773438,-0.9469788670539856,2.383498430252075,0.043463218957185745,0.0,0.0,0.0,1.7312672288064932,70,255,64,64
353,12.031214300999636,20.64154815673828,2.901979923248291,-15.092330932617188,-0.9531340599060059,2.3901925086975098,0.042262207716703415,0.0,0.0,0.0,1.735634546678114,70,255,64,64
354,12.068472479999855,20.63003921508789,3.0056846141815186,-15.089981079101562,-0.966666042804718,2.391573190689087,0.02475803904235363,0.0,0.0,0.0,1.739600259857351,70,255,64,64
355,12.100564635999945,20.61811065673828,3.087970018386841,-15.088226318359375,-0.9745192527770996,2.39259672164917,0.0296358410269022,0.0,0.0,0.0,1.742484197001798,70,255,64,64
356,12.132900997999968,20.60381317138672,3.169933795928955,-15.08624267578125,-0.9775782227516174,2.4022178649902344,0.05004725605249405,0.0,0.0,0.0,1.7467166257642064,70,255,64,64
357,12.170140193999941,20.59886360168457,3.252701759338379,-15.084564208984375,-0.9881680607795715,2.4047276973724365,0.054506491869688034,0.0,0.0,0.0,1.7513698339788473,70,255,64,64
358,12.20248810899966,20.591482162475586,3.3351237773895264,-15.082916259765625,-0.9662479758262634,2.4116761684417725,0.045354075729846954,0.0,0.0,0.0,1.7551631074775016,70,255,64,64
359,12.23489835600003,20.58152198791504,3.4169561862945557,-15.081253051757812,-0.9790680408477783,2.4035093784332275,0.05868713557720184,0.0,0.0,0.0,1.757153287760118,70,255,64,64
360,12.2721138779998,20.572622299194336,3.5202226638793945,-15.079360961914062,-0.944889485836029,2.418733835220337,0.06878087669610977,0.0,0.0,0.0,1.7614698724129727,70,255,64,64
361,12.304108317999635,20.57073974609375,3.6039271354675293,-15.077499389648438,-0.9444046020507812,2.4039924144744873,0.08442141115665436,0.0,0.0,0.0,1.7659041687860093,70,255,64,64
362,12.33642422999992,20.565778732299805,3.6867802143096924,-15.075836181640625,-0.9451231956481934,2.3967373371124268,0.06426781415939331,0.0,0.0,0.0,1.7684794455601158,70,255,64,64
363,12.374816744999862,20.5579776763916,3.7687625885009766,-15.07403564453125,-0.9453750252723694,2.3914921283721924,0.05260252207517624,0.0,0.0,0.0,1.7725924315476342,70,255,64,64
364,12.405699998999808,20.552099227905273,3.849935531616211,-15.073837280273438,-0.930505096912384,2.3910348415374756,0.04933572933077812,0.0,0.0,0.0,1.7768612124589223,70,255,64,64
365,12.438009191999754,20.547361373901367,3.930354595184326,-15.07476806640625,-0.9695146679878235,2.3710508346557617,0.05980749428272247,0.0,0.0,0.0,1.7790251640026662,70,255,64,64
366,12.475112181999975,20.535593032836914,4.029420375823975,-15.075057983398438,-1.0083786249160767,2.3546502590179443,0.06241412088274956,0.0,0.0,0.0,1.7823912664624717,70,255,64,64
367,12.507278477,20.52313995361328,4.108025074005127,-15.075515747070312,-1.007498860359192,2.350465774536133,0.0423780232667923,0.0,0.0,0.0,1.784275985565921,70,255,64,64
368,12.539994503999878,20.515628814697266,4.18754243850708,-15.07672119140625,-1.0276765823364258,2.3294851779937744,0.04696076363325119,0.0,0.0,0.0,1.787931307320109,70,255,64,64
369,12.57693888499989,20.506900787353516,4.266845226287842,-15.078353881835938,-1.0428321361541748,2.331721067428589,0.02444336749613285,0.0,0.0,0.0,1.7924227284985277,70,255,64,64
370,12.609183738999945,20.49555778503418,4.345834255218506,-15.080062866210938,-1.0186262130737305,2.3424184322357178,0.014881609939038754,0.0,0.0,0.0,1.7968584896101638,70,255,64,64
371,12.641391078999732,20.482555389404297,4.424687385559082,-15.081283569335938,-1.0152860879898071,2.3465960025787354,0.023540467023849487,0.0,0.0,0.0,1.7987191071057476,70,255,64,64
372,12.678729905999717,20.472454071044922,4.526745796203613,-15.0831298828125,-1.0583736896514893,2.3264315128326416,0.01937015913426876,0.0,0.0,0.0,1.8027945425218959,70,255,64,64
373,12.710537379000016,20.460161209106445,4.607234001159668,-15.083770751953125,-1.0933622121810913,2.3229103088378906,0.030958466231822968,0.0,0.0,0.0,1.8052168206913775,70,255,64,64
374,12.742810169999757,20.444683074951172,4.6871018409729,-15.084609985351562,-1.1066970825195312,2.3249452114105225,0.00876485463231802,0.0,0.0,0.0,1.808593708953598,70,255,64,64
375,12.780776865000007,20.42798614501953,4.766554355621338,-15.085052490234375,-1.1387968063354492,2.3152801990509033,0.00841638445854187,0.0,0.0,0.0,1.8135150974900098,70,255,64,64
376,12.812539619999825,20.41323471069336,4.845811367034912,-15.08331298828125,-1.1451739072799683,2.311633825302124,0.005393526516854763,0.0,0.0,0.0,1.8154762493167442,70,255,64,64
377,12.845123049999984,20.395740509033203,4.92415714263916,-15.081558227539062,-1.1672391891479492,2.2946391105651855,0.009310434572398663,0.0,0.0,0.0,1.8203913794245945,70,255,64,64
378,12.88227832199982,20.370025634765625,5.021174907684326,-15.079727172851562,-1.1977492570877075,2.2851805686950684,0.008259573951363564,0.0,0.0,0.0,1.824342977850054,70,255,64,64
379,12.914372964999984,20.34917449951172,5.099401473999023,-15.076278686523438,-1.2133833169937134,2.272369861602783,0.021503278985619545,0.0,0.0,0.0,1.8282449083211836,70,255,64,64
380,12.946470766999937,20.328937530517578,5.178055763244629,-15.071090698242188,-1.2183459997177124,2.257594108581543,0.03982987254858017,0.0,0.0,0.0,1.8299958035798563,70,255,64,64
381,12.983717221999996,20.30601692199707,5.255526065826416,-15.06500244140625,-1.2340410947799683,2.243440866470337,0.07707960158586502,0.0,0.0,0.0,1.8342607229075636,70,255,64,64
382,13.015741275999972,20.281005859375,5.332151412963867,-15.059051513671875,-1.2446964979171753,2.2360591888427734,0.07399448752403259,0.0,0.0,0.0,1.8388525452590783,70,255,64,64
383,13.048035520999747,20.26061248779297,5.410922050476074,-15.052383422851562,-1.2150321006774902,2.243035316467285,0.07315593212842941,0.0,0.0,0.0,1.8407371312044727,70,255,64,64
384,13.086806690999765,20.234952926635742,5.509433746337891,-15.044296264648438,-1.233973503112793,2.2368052005767822,0.08583942800760269,0.0,0.0,0.0,1.844623881657389,70,255,64,64
385,13.118286710999655,20.211666107177734,5.587238311767578,-15.037979125976562,-1.250342845916748,2.2314887046813965,0.0747164785861969,0.0,0.0,0.0,1.8491585792035212,70,255,64,64
386,13.185886903999744,20.186073303222656,5.664481163024902,-15.032684326171875,-1.245356798171997,2.238348960876465,0.053366754204034805,0.0,0.0,0.0,1.8491585792035212,70,255,64,64
387,13.237303440999767,20.16579818725586,5.743473052978516,-15.028640747070312,-1.2734118700027466,2.22588849067688,0.03415729105472565,0.0,0.0,0.0,1.8514990983275375,70,255,64,64
388,13.281219675999637,20.14299964904785,5.821387767791748,-15.024917602539062,-1.264517903327942,2.2309064865112305,0.017177430912852287,0.0,0.0,0.0,1.853990352369252,70,255,64,64
389,13.320467344999997,20.11800193786621,5.89866304397583,-15.021682739257812,-1.2840467691421509,2.220827341079712,0.02137059159576893,0.0,0.0,0.0,1.853990352369252,70,255,64,64
390,13.366415054999834,20.0885009765625,5.994393348693848,-15.018951416015625,-1.3020145893096924,2.1893293857574463,0.033629123121500015,0.0,0.0,0.0,1.853990352369252,70,255,64,64
391,13.372434037999938,20.068227767944336,6.070684432983398,-15.018356323242188,-1.2818101644515991,2.198514461517334,0.010930853895843029,0.0,0.0,0.0,1.8561453823233443,70,255,64,64
392,13.377869793999707,20.04556655883789,6.1461358070373535,-15.017837524414062,-1.3060696125030518,2.179699182510376,0.024801772087812424,0.0,0.0,0.0,1.8561453823233443,70,255,64,64
393,13.401405273999899,20.019681930541992,6.220555305480957,-15.016998291015625,-1.3266396522521973,2.1674141883850098,0.027165105566382408,0.0,0.0,0.0,1.8631914407774213,70,255,64,64
394,13.429642903999593,19.995752334594727,6.2944231033325195,-15.016143798828125,-1.3260849714279175,2.1535732746124268,0.048423632979393005,0.0,0.0,0.0,1.8816482123961065,70,255,64,64
395,13.462429581999913,19.974193572998047,6.368058204650879,-15.015213012695312,-1.303478479385376,2.151493787765503,0.05213700979948044,0.0,0.0,0.0,1.8861352393587265,70,255,64,64
396,13.49893844799999,19.945390701293945,6.459259510040283,-15.013275146484375,-1.265213131904602,2.1454479694366455,0.0731596127152443,0.0,0.0,0.0,1.8904188008140645,70,255,64,64
397,13.531461857999602,19.919702529907227,6.531219005584717,-15.01153564453125,-1.3009181022644043,2.1202168464660645,0.06192394345998764,0.0,0.0,0.0,1.8924736959111697,70,255,64,64
398,13.563872634999825,19.89716339111328,6.603105545043945,-15.010238647460938,-1.2822003364562988,2.1115872859954834,0.08434212952852249,0.0,0.0,0.0,1.8963062510359026,70,255,64,64
399,13.600836979999713,19.874330520629883,6.674727439880371,-15.008590698242188,-1.2994838953018188,2.1045918464660645,0.09444107860326767,0.0,0.0,0.0,1.9003537232606051,70,255,64,64
400,13.633122062999973,19.84879493713379,6.745565414428711,-15.00653076171875,-1.301422119140625,2.0975100994110107,0.09162185341119766,0.0,0.0,0.0,1.902135378029868,70,255,64,64
401,13.665575910999905,19.821035385131836,6.815759181976318,-15.004791259765625,-1.3233729600906372,2.0914156436920166,0.06410320103168488,0.0,0.0,0.0,1.9055378326385533,70,255,64,64
402,13.701993809999749,19.79157257080078,6.9058685302734375,-15.000839233398438,-1.3490864038467407,2.080249309539795,0.045300208032131195,0.0,0.0,0.0,1.9092157912620071,70,255,64,64
403,13.734909893999884,19.76491355895996,6.977036952972412,-14.998062133789062,-1.3547308444976807,2.080254316329956,0.04320235550403595,0.0,0.0,0.0,1.9112150262923298,70,255,64,64
404,13.7673656879997,19.736480712890625,7.047543048858643,-14.995254516601562,-1.3434276580810547,2.068272590637207,0.04667868837714195,0.0,0.0,0.0,1.915104173590227,70,255,64,64
405,13.804189115999634,19.708633422851562,7.117327690124512,-14.991912841796875,-1.3325705528259277,2.060448408126831,0.05449877306818962,0.0,0.0,0.0,1.9192095695686386,70,255,64,64
406,13.837119791999612,19.67925262451172,7.2045817375183105,-14.987533569335938,-1.3499916791915894,2.060825824737549,0.02127542346715927,0.0,0.0,0.0,1.9211428913619817,70,255,64,64
407,13.869204469999659,19.652353286743164,7.273800373077393,-14.984725952148438,-1.3665783405303955,2.0539331436157227,0.022812455892562866,0.0,0.0,0.0,1.9252533473464644,70,255,64,64
408,13.90579466500003,19.623125076293945,7.342202663421631,-14.982070922851562,-1.3820791244506836,2.0364840030670166,0.02408277988433838,0.0,0.0,0.0,1.9302799307459344,70,255,64,64
409,13.93865452,19.5941219329834,7.410905361175537,-14.980484008789062,-1.4048418998718262,2.020432710647583,0.04318154603242874,0.0,0.0,0.0,1.9327233810460822,70,255,64,64
410,13.971463608999784,19.565370559692383,7.480218887329102,-14.980377197265625,-1.4001319408416748,2.029327630996704,-0.0005153432139195502,0.0,0.0,0.0,1.9371198605316395,70,255,64,64
411,14.00757735299976,19.53420066833496,7.5487260818481445,-14.980316162109375,-1.419689655303955,2.0111243724823,0.013531111180782318,0.0,0.0,0.0,1.9415437705764247,70,255,64,64
412,14.040380157999607,19.500898361206055,7.616520881652832,-14.980560302734375,-1.4322290420532227,2.0129096508026123,-0.01302291452884674,0.0,0.0,0.0,1.9438099875060275,70,255,64,64
413,14.073599763999937,19.468599319458008,7.685701847076416,-14.978683471679688,-1.4357211589813232,2.0074214935302734,-0.010405014269053936,0.0,0.0,0.0,1.9487335065713116,70,255,64,64
414,14.10931297299976,19.426326751708984,7.771581172943115,-14.975601196289062,-1.448144793510437,2.002551794052124,-0.02276175655424595,0.0,0.0,0.0,1.9531238607863617,70,255,64,64
415,14.142295500999808,19.390331268310547,7.839597225189209,-14.973785400390625,-1.471954107284546,1.9991432428359985,-0.034865811467170715,0.0,0.0,0.0,1.9553348171233453,70,255,64,64
416,14.174641090000023,19.352224349975586,7.90725564956665,-14.972686767578125,-1.4829055070877075,2.005849838256836,-0.05115296691656113,0.0,0.0,0.0,1.9599938842923845,70,255,64,64
417,14.21158482599958,19.31986427307129,7.976954936981201,-14.970870971679688,-1.4964343309402466,2.007376194000244,-0.05991537496447563,0.0,0.0,0.0,1.9651335188801284,70,255,64,64
418,14.244358140999793,19.285472869873047,8.045958518981934,-14.969284057617188,-1.5059007406234741,1.997502088546753,-0.04043964669108391,0.0,0.0,0.0,1.9688036211783666,70,255,64,64
419,14.276731041999938,19.249513626098633,8.114217758178711,-14.967300415039062,-1.4889261722564697,1.996241569519043,-0.02742561511695385,0.0,0.0,0.0,1.9734815967911454,70,255,64,64
420,14.313653860999693,19.206802368164062,8.201016426086426,-14.964553833007812,-1.4832772016525269,1.9910167455673218,0.002801996422931552,0.0,0.0,0.0,1.9775165521587244,70,255,64,64
421,14.345971854999789,19.175310134887695,8.272154808044434,-14.962188720703125,-1.4669417142868042,2.0046753883361816,-0.0004204937140457332,0.0,0.0,0.0,1.9803967608776452,70,255,64,64
422,14.378417382999942,19.14193344116211,8.342461585998535,-14.960403442382812,-1.478924036026001,1.9908705949783325,0.0040532550774514675,0.0,0.0,0.0,1.9838408939573902,70,255,64,64
423,14.415045377999832,19.107196807861328,8.412165641784668,-14.95849609375,-1.4512861967086792,2.006582260131836,0.0025919193867594004,0.0,0.0,0.0,1.9885854485974208,70,255,64,64
424,14.447792538999693,19.074052810668945,8.483551979064941,-14.956497192382812,-1.4528560638427734,2.0051779747009277,-0.010125348344445229,0.0,0.0,0.0,1.99074660382202,70,255,64,64
425,14.480119141999694,19.042499542236328,8.556465148925781,-14.954208374023438,-1.4377211332321167,2.0152649879455566,-0.007424537558108568,0.0,0.0,0.0,1.995713665571127,70,255,64,64
426,14.516945938999925,19.00059700012207,8.646293640136719,-14.951217651367188,-1.4576336145401,1.9984157085418701,0.00449105491861701,0.0,0.0,0.0,1.999933577476412,70,255,64,64
427,14.54910642599998,18.964874267578125,8.716958045959473,-14.949295043945312,-1.4443819522857666,2.0047242641448975,-0.007791292387992144,0.0,0.0,0.0,2.0018662334794826,70,255,64,64
428,14.582606509000016,18.93059539794922,8.78791618347168,-14.946792602539062,-1.4321008920669556,1.9974840879440308,0.0020785194355994463,0.0,0.0,0.0,2.0067552646086497,70,255,64,64
429,14.61866881099968,18.89554214477539,8.858244895935059,-14.944229125976562,-1.4373018741607666,1.9906160831451416,0.012051056139171124,0.0,0.0,0.0,2.0107488078212783,70,255,64,64
430,14.651235704999635,18.85886573791504,8.92776107788086,-14.942276000976562,-1.4534944295883179,1.9905322790145874,-0.02822561003267765,0.0,0.0,0.0,2.015126645179205,70,255,64,64
431,14.683836794999934,18.820262908935547,8.996723175048828,-14.941192626953125,-1.4746164083480835,1.9921841621398926,-0.033145274966955185,0.0,0.0,0.0,2.0171426581243947,70,255,64,64
432,14.720200341999771,18.774118423461914,9.085356712341309,-14.939437866210938,-1.4572343826293945,1.9964522123336792,-0.009461544454097748,0.0,0.0,0.0,2.0210532438690674,70,255,64,64
433,14.753143291000015,18.73590850830078,9.155564308166504,-14.938446044921875,-1.458444356918335,1.9969054460525513,-0.030126601457595825,0.0,0.0,0.0,2.0231787127350596,70,255,64,64
434,14.78608751899992,18.695934295654297,9.224709510803223,-14.93792724609375,-1.5083099603652954,1.9578578472137451,-0.02099541760981083,0.0,0.0,0.0,2.028493716480585,70,255,64,64
435,14.82238936199974,18.654142379760742,9.293012619018555,-14.937515258789062,-1.513802409172058,1.95704185962677,-0.030087605118751526,0.0,0.0,0.0,2.032807904288459,70,255,64,64
436,14.85470369199993,18.611833572387695,9.362507820129395,-14.938262939453125,-1.5342861413955688,1.942765712738037,-0.03613230958580971,0.0,0.0,0.0,2.0349561431817715,70,255,64,64
437,14.887577435999901,18.567991256713867,9.430801391601562,-14.939041137695312,-1.5291980504989624,1.9342288970947266,-0.03129372373223305,0.0,0.0,0.0,2.039920275453679,70,255,64,64
438,14.924311409999973,18.512022018432617,9.515055656433105,-14.94024658203125,-1.5374542474746704,1.934796929359436,-0.039519988000392914,0.0,0.0,0.0,2.043856960177034,70,255,64,64
439,14.95648716200003,18.468700408935547,9.583291053771973,-14.941680908203125,-1.5352967977523804,1.9337232112884521,-0.03299707546830177,0.0,0.0,0.0,2.046306003115471,70,255,64,64
440,14.989375343999654,18.427019119262695,9.652444839477539,-14.944259643554688,-1.524310827255249,1.9348969459533691,-0.039162829518318176,0.0,0.0,0.0,2.0507196599900595,70,255,64,64
441,15.025835810999979,18.38499641418457,9.720973014831543,-14.946762084960938,-1.5018062591552734,1.9351290464401245,-0.044615279883146286,0.0,0.0,0.0,2.05474076691997,70,255,64,64
442,15.058389450999584,18.34210777282715,9.788811683654785,-14.949508666992188,-1.5151983499526978,1.9393657445907593,-0.06239328533411026,0.0,0.0,0.0,2.058922595621667,70,255,64,64
443,15.091510942999776,18.299264907836914,9.856237411499023,-14.95245361328125,-1.533043622970581,1.9273775815963745,-0.06411009281873703,0.0,0.0,0.0,2.0609255590775155,70,255,64,64
444,15.127552480999839,18.245176315307617,9.940051078796387,-14.955535888671875,-1.5103797912597656,1.9422032833099365,-0.05213337764143944,0.0,0.0,0.0,2.0647281536399853,70,255,64,64
445,15.160636450999846,18.20150375366211,10.006721496582031,-14.958160400390625,-1.501983642578125,1.9365625381469727,-0.049009714275598526,0.0,0.0,0.0,2.0673989047391714,70,255,64,64
446,15.193269145999693,18.15681266784668,10.07248306274414,-14.960739135742188,-1.5293998718261719,1.9234787225723267,-0.06708467751741409,0.0,0.0,0.0,2.0703753867314982,70,255,64,64
447,15.229516141999738,18.112850189208984,10.138605117797852,-14.95965576171875,-1.5225564241409302,1.903922200202942,-0.05252177268266678,0.0,0.0,0.0,2.074695034019607,70,255,64,64
448,15.262098045999664,18.06855583190918,10.204087257385254,-14.958663940429688,-1.5063234567642212,1.9145283699035645,-0.06768212467432022,0.0,0.0,0.0,2.0790876519215833,70,255,64,64
449,15.294707573999858,18.02434730529785,10.269556999206543,-14.958145141601562,-1.484217643737793,1.9199104309082031,-0.053895480930805206,0.0,0.0,0.0,2.0816392265619883,70,255,64,64
450,15.331573270999797,17.970401763916016,10.351423263549805,-14.958572387695312,-1.4770234823226929,1.9152315855026245,-0.02679414488375187,0.0,0.0,0.0,2.085223042440908,70,255,64,64
451,15.364258378999693,17.927658081054688,10.416675567626953,-14.961105346679688,-1.4935368299484253,1.9044209718704224,-0.05098322033882141,0.0,0.0,0.0,2.0889442774320757,70,255,64,64
452,15.397460625999884,17.883838653564453,10.481226921081543,-14.963790893554688,-1.5111265182495117,1.8956600427627563,-0.04779912531375885,0.0,0.0,0.0,2.0911716122097634,70,255,64,64
453,15.432649718999983,17.83899688720703,10.54521369934082,-14.966720581054688,-1.516175389289856,1.8932889699935913,-0.06575089693069458,0.0,0.0,0.0,2.0948590250550874,70,255,64,64
454,15.46547310699998,17.79412078857422,10.609052658081055,-14.96856689453125,-1.5114446878433228,1.8845621347427368,-0.07102426141500473,0.0,0.0,0.0,2.096665447222488,70,255,64,64
455,15.497834057999626,17.74952507019043,10.672746658325195,-14.969436645507812,-1.490814447402954,1.8933221101760864,-0.0581316277384758,0.0,0.0,0.0,2.1014443566405805,70,255,64,64
456,15.534518800999649,17.693212509155273,10.751907348632812,-14.96966552734375,-1.4860203266143799,1.8858612775802612,-0.027297845110297203,0.0,0.0,0.0,2.1049016723677214,70,255,64,64
457,15.567170727999837,17.648252487182617,10.814918518066406,-14.969512939453125,-1.4458014965057373,1.9023010730743408,-0.02140580676496029,0.0,0.0,0.0,2.1064933105932075,70,255,64,64
458,15.600179745999867,17.607397079467773,10.878604888916016,-14.968154907226562,-1.452578067779541,1.8803975582122803,0.003531938884407282,0.0,0.0,0.0,2.1101245307395304,70,255,64,64
459,15.636460169999737,17.567113876342773,10.941977500915527,-14.966064453125,-1.4318293333053589,1.8895195722579956,0.007397352252155542,0.0,0.0,0.0,2.1143983716568897,70,255,64,64
460,15.669217038999705,17.526268005371094,11.004733085632324,-14.964004516601562,-1.4469172954559326,1.8561558723449707,0.00965218897908926,0.0,0.0,0.0,2.116002926213662,70,255,64,64
461,15.702065558999948,17.484201431274414,11.066414833068848,-14.9622802734375,-1.4494719505310059,1.8519893884658813,0.00865294598042965,0.0,0.0,0.0,2.119824296061817,70,255,64,64
462,15.738004533999629,17.432472229003906,11.143610000610352,-14.955734252929688,-1.4680590629577637,1.843207836151123,-0.012675161473453045,0.0,0.0,0.0,2.123584679521009,70,255,64,64
463,15.770902591999857,17.39021873474121,11.204941749572754,-14.951278686523438,-1.4726866483688354,1.8352960348129272,-0.0037106219679117203,0.0,0.0,0.0,2.125667005177342,70,255,64,64
464,15.80349226899989,17.346933364868164,11.265761375427246,-14.947479248046875,-1.4816228151321411,1.825698971748352,-0.012161270715296268,0.0,0.0,0.0,2.1296476320586835,70,255,64,64
465,15.840276046999861,17.303068161010742,11.325533866882324,-14.944061279296875,-1.5007541179656982,1.8071285486221313,-0.0036867845337837934,0.0,0.0,0.0,2.1339804619941876,70,255,64,64
466,15.8738104199997,17.259740829467773,11.384671211242676,-14.941299438476562,-1.5096052885055542,1.8051387071609497,-0.023638317361474037,0.0,0.0,0.0,2.1359525327813915,70,255,64,64
467,15.906669835999764,17.215171813964844,11.443507194519043,-14.939361572265625,-1.5303212404251099,1.7915594577789307,-0.018338115885853767,0.0,0.0,0.0,2.140511331935389,70,255,64,64
468,15.942655411000032,17.15842628479004,11.516362190246582,-14.936508178710938,-1.524391770362854,1.7896208763122559,-0.005437677726149559,0.0,0.0,0.0,2.144703280649228,70,255,64,64
469,15.977277703999789,17.113452911376953,11.573515892028809,-14.932907104492188,-1.5165047645568848,1.792053461074829,-0.008317843079566956,0.0,0.0,0.0,2.1492548892682826,70,255,64,64
470,16.008602404999692,17.06880760192871,11.629584312438965,-14.9281005859375,-1.5148028135299683,1.777571201324463,-0.02034064568579197,0.0,0.0,0.0,2.151908329820383,70,255,64,64
471,16.044668152999748,17.02338409423828,11.68525505065918,-14.924118041992188,-1.517080545425415,1.771273136138916,-0.019721072167158127,0.0,0.0,0.0,2.156460204755547,70,255,64,64
472,16.077740392999658,16.977048873901367,11.740804672241211,-14.921173095703125,-1.5228177309036255,1.7738813161849976,-0.065009206533432,0.0,0.0,0.0,2.1612594873559785,70,255,64,64
473,16.110364628999832,16.93092918395996,11.795367240905762,-14.916519165039062,-1.5372626781463623,1.7625168561935425,-0.07295133173465729,0.0,0.0,0.0,2.1636153196562624,70,255,64,64
474,16.146735070999966,16.872650146484375,11.863232612609863,-14.910079956054688,-1.5252559185028076,1.7732707262039185,-0.06044498085975647,0.0,0.0,0.0,2.168425654375218,70,255,64,64
475,16.178612387999692,16.825767517089844,11.917932510375977,-14.905380249023438,-1.5230759382247925,1.7728667259216309,-0.0469486229121685,0.0,0.0,0.0,2.1705244916303097,70,255,64,64
476,16.212108762999833,16.778871536254883,11.972892761230469,-14.901321411132812,-1.5188462734222412,1.774332880973816,-0.06613695621490479,0.0,0.0,0.0,2.174456249505648,70,255,64,64
477,16.24828620399967,16.73115348815918,12.026491165161133,-14.897796630859375,-1.5276505947113037,1.7650262117385864,-0.05168507248163223,0.0,0.0,0.0,2.1796897605218173,70,255,64,64
478,16.281346026999927,16.683088302612305,12.080201148986816,-14.894485473632812,-1.5304954051971436,1.7620562314987183,-0.049289342015981674,0.0,0.0,0.0,2.1837665275185105,70,255,64,64
479,16.314161994999722,16.63473129272461,12.133991241455078,-14.891860961914062,-1.517587661743164,1.7619085311889648,-0.057240236550569534,0.0,0.0,0.0,2.1856097013089544,70,255,64,64
480,16.35067711800002,16.57500457763672,12.20112133026123,-14.889617919921875,-1.5407204627990723,1.750811219215393,-0.050919245928525925,0.0,0.0,0.0,2.1900779529858894,70,255,64,64
481,16.38318030599976,16.527816772460938,12.25472354888916,-14.888885498046875,-1.536321997642517,1.7566554546356201,-0.054931752383708954,0.0,0.0,0.0,2.1948452776532403,70,255,64,64
482,16.416259715999786,16.479719161987305,12.30851936340332,-14.88861083984375,-1.5563914775848389,1.7600716352462769,-0.0729866772890091,0.0,0.0,0.0,2.1973636959380736,70,255,64,64
483,16.452107258999604,16.431001663208008,12.362509727478027,-14.889144897460938,-1.563514232635498,1.750033974647522,-0.0936477780342102,0.0,0.0,0.0,2.2018905371589903,70,255,64,64
484,16.484607330000017,16.38107681274414,12.415071487426758,-14.891921997070312,-1.5798529386520386,1.734872817993164,-0.10659468173980713,0.0,0.0,0.0,2.2039006911497823,70,255,64,64
485,16.51779637899972,16.32979965209961,12.46643352508545,-14.896240234375,-1.6092660427093506,1.7059329748153687,-0.0956779420375824,0.0,0.0,0.0,2.207750157347437,70,255,64,64
486,16.55412181099973,16.26428985595703,12.529946327209473,-14.900787353515625,-1.6253008842468262,1.6942025423049927,-0.09044754505157471,0.0,0.0,0.0,2.21197206662354,70,255,64,64
487,16.587183830999948,16.21149444580078,12.58088207244873,-14.904312133789062,-1.6343920230865479,1.67916738986969,-0.07238516211509705,0.0,0.0,0.0,2.215841639687425,70,255,64,64
488,16.6198214369997,16.159809112548828,12.629739761352539,-14.906570434570312,-1.6501922607421875,1.6626964807510376,-0.07639904320240021,0.0,0.0,0.0,2.218400404862773,70,255,64,64
489,16.656270068999675,16.107830047607422,12.678059577941895,-14.908432006835938,-1.6378400325775146,1.6653474569320679,-0.06377508491277695,0.0,0.0,0.0,2.2222408163127216,70,255,64,64
490,16.68956823299959,16.055957794189453,12.726613998413086,-14.91033935546875,-1.6264455318450928,1.6642861366271973,-0.07320161908864975,0.0,0.0,0.0,2.226298275391512,70,255,64,64
491,16.722824965999735,15.99266242980957,12.787684440612793,-14.913131713867188,-1.6023845672607422,1.6729753017425537,-0.07809145003557205,0.0,0.0,0.0,2.2288526463510614,70,255,64,64
492,16.75842064199969,15.943876266479492,12.83478832244873,-14.91534423828125,-1.5808159112930298,1.6856285333633423,-0.06372169405221939,0.0,0.0,0.0,2.232886669612259,70,255,64,64
493,16.790753906999726,15.895548820495605,12.883110046386719,-14.917922973632812,-1.5625077486038208,1.6951773166656494,-0.06560646742582321,0.0,0.0,0.0,2.237590611045666,70,255,64,64
494,16.825246977999996,15.847031593322754,12.931561470031738,-14.920181274414062,-1.562999963760376,1.6757640838623047,-0.06057647988200188,0.0,0.0,0.0,2.23998399391732,70,255,64,64
495,16.860068538999712,15.797256469726562,12.979413986206055,-14.92279052734375,-1.5761289596557617,1.657598614692688,-0.06917071342468262,0.0,0.0,0.0,2.2443403928284718,70,255,64,64
496,16.893309379999664,15.746005058288574,13.025993347167969,-14.926376342773438,-1.5686521530151367,1.6473695039749146,-0.07038233429193497,0.0,0.0,0.0,2.2465140649101945,70,255,64,64
497,16.927076037000006,15.694732666015625,13.072854042053223,-14.929351806640625,-1.5611058473587036,1.6478068828582764,-0.05678967013955116,0.0,0.0,0.0,2.2506132024600447,70,255,64,64
498,16.962259836999692,15.630603790283203,13.132105827331543,-14.933258056640625,-1.5654881000518799,1.6403785943984985,-0.06528495997190475,0.0,0.0,0.0,2.254624722010031,70,255,64,64
499,16.995222326999738,15.57915210723877,13.178162574768066,-14.9351806640625,-1.5593563318252563,1.629889965057373,-0.04588969796895981,0.0,0.0,0.0,2.259070869449918,70,255,64,64
500,17.027828205999867,15.527451515197754,13.223134994506836,-14.936141967773438,-1.5824962854385376,1.609265923500061,-0.04119471088051796,0.0,0.0,0.0,2.261525238710535,70,255,64,64
501,17.065128551999805,15.474418640136719,13.267875671386719,-14.937850952148438,-1.6291096210479736,1.567413091659546,-0.0660310909152031,0.0,0.0,0.0,2.2645705634170405,70,255,64,64
502,17.097018251999998,15.420968055725098,13.312803268432617,-14.940093994140625,-1.6081866025924683,1.5957012176513672,-0.06333915144205093,0.0,0.0,0.0,2.266524791024941,70,255,64,64
503,17.129882235999958,15.369535446166992,13.358160018920898,-14.943206787109375,-1.6210612058639526,1.580122709274292,-0.03743932768702507,0.0,0.0,0.0,2.27086840676286,70,255,64,64
504,17.16623248699989,15.30578327178955,13.415339469909668,-14.947036743164062,-1.6057394742965698,1.5962492227554321,-0.04818616434931755,0.0,0.0,0.0,2.2752791341602494,70,255,64,64
505,17.19875527999966,15.254746437072754,13.462039947509766,-14.95013427734375,-1.6004406213760376,1.611520767211914,-0.06364421546459198,0.0,0.0,0.0,2.2770725068383086,70,255,64,64
506,17.231814035999832,15.204058647155762,13.509479522705078,-14.953094482421875,-1.5792971849441528,1.6217987537384033,-0.051718711853027344,0.0,0.0,0.0,2.281549280630732,70,255,64,64
507,17.268078825999964,15.152786254882812,13.555761337280273,-14.958236694335938,-1.576293706893921,1.640815258026123,-0.05099303647875786,0.0,0.0,0.0,2.285386363129318,70,255,64,64
508,17.300761315999807,15.101736068725586,13.60318660736084,-14.963088989257812,-1.5552386045455933,1.6499459743499756,-0.038348618894815445,0.0,0.0,0.0,2.287597585782411,70,255,64,64
509,17.33405701399988,15.050857543945312,13.65108585357666,-14.96759033203125,-1.564347267150879,1.6495970487594604,-0.06041998416185379,0.0,0.0,0.0,2.291574484238226,70,255,64,64
510,17.369889334999698,14.988165855407715,13.710890769958496,-14.972137451171875,-1.567936897277832,1.6437352895736694,-0.08143648505210876,0.0,0.0,0.0,2.295105835843671,70,255,64,64
511,17.40315327799999,14.939435005187988,13.75843334197998,-14.973861694335938,-1.5582356452941895,1.6578586101531982,-0.06403203308582306,0.0,0.0,0.0,2.2968312979139336,70,255,64,64
512,17.436490922999837,14.890686988830566,13.806785583496094,-14.975692749023438,-1.56194007396698,1.6531014442443848,-0.07754641771316528,0.0,0.0,0.0,2.300199397744557,70,255,64,64
513,17.472509833999993,14.841934204101562,13.855710983276367,-14.977554321289062,-1.5451351404190063,1.6734495162963867,-0.07371077686548233,0.0,0.0,0.0,2.3044559281148307,70,255,64,64
514,17.505070817999695,14.790709495544434,13.902867317199707,-14.978851318359375,-1.5590016841888428,1.6566150188446045,-0.0626445785164833,0.0,0.0,0.0,2.306452766300172,70,255,64,64
515,17.5375586629998,14.736888885498047,13.94760799407959,-14.978836059570312,-1.5636258125305176,1.6366170644760132,-0.04146147891879082,0.0,0.0,0.0,2.3103399162272518,70,255,64,64
516,17.57510550500001,14.669333457946777,14.004037857055664,-14.978729248046875,-1.594535231590271,1.6162821054458618,-0.04342060536146164,0.0,0.0,0.0,2.314658764567033,70,255,64,64
517,17.60794775999966,14.614578247070312,14.049346923828125,-14.979049682617188,-1.6049609184265137,1.6151305437088013,-0.03963131457567215,0.0,0.0,0.0,2.3188159590286466,70,255,64,64
518,17.639887368000018,14.559036254882812,14.095020294189453,-14.981399536132812,-1.5776939392089844,1.6347085237503052,-0.024563679471611977,0.0,0.0,0.0,2.321180579760528,70,255,64,64
519,17.67672133399992,14.503181457519531,14.140892028808594,-14.983840942382812,-1.587917447090149,1.6238548755645752,-0.015273146331310272,0.0,0.0,0.0,2.326056561400354,70,255,64,64
520,17.70891662699978,14.447620391845703,14.187112808227539,-14.98590087890625,-1.5870779752731323,1.6186156272888184,-0.029411131516098976,0.0,0.0,0.0,2.3283157209530683,70,255,64,64
521,17.741843913999674,14.392064094543457,14.23391056060791,-14.988723754882812,-1.5831269025802612,1.6469720602035522,-0.07110996544361115,0.0,0.0,0.0,2.332264656217438,70,255,64,64
522,17.778519906999918,14.324670791625977,14.29119873046875,-14.99493408203125,-1.5799611806869507,1.64522123336792,-0.059433553367853165,0.0,0.0,0.0,2.3368852407087255,70,255,64,64
523,17.81108444499978,14.271368026733398,14.337945938110352,-14.998855590820312,-1.5723406076431274,1.645440697669983,-0.043402303010225296,0.0,0.0,0.0,2.3407532158759565,70,255,64,64
524,17.84364036399984,14.218114852905273,14.385035514831543,-15.001876831054688,-1.56454336643219,1.6467316150665283,-0.013524931855499744,0.0,0.0,0.0,2.343195334595559,70,255,64,64
525,17.880035206999764,14.164200782775879,14.431278228759766,-15.004440307617188,-1.5948617458343506,1.6280746459960938,-0.016328303143382072,0.0,0.0,0.0,2.347323500601291,70,255,64,64
526,17.913010936999854,14.109033584594727,14.474994659423828,-15.006973266601562,-1.5983293056488037,1.6314113140106201,-0.019096918404102325,0.0,0.0,0.0,2.3514322255310653,70,255,64,64
527,17.94595579099996,14.05416202545166,14.51960563659668,-15.009201049804688,-1.5930355787277222,1.6304295063018799,-0.010911589488387108,0.0,0.0,0.0,2.3539023074421137,70,255,64,64
528,17.982214013999965,13.985684394836426,14.575822830200195,-15.011566162109375,-1.5945968627929688,1.6120132207870483,-0.02352265641093254,0.0,0.0,0.0,2.357949247034598,70,255,64,64
529,18.014923216999705,13.930228233337402,14.620838165283203,-15.013519287109375,-1.5838496685028076,1.6228501796722412,-0.021729974076151848,0.0,0.0,0.0,2.361776209521042,70,255,64,64
530,18.048533501999827,13.874539375305176,14.666367530822754,-15.014938354492188,-1.563468098640442,1.6427927017211914,-0.003896778216585517,0.0,0.0,0.0,2.36332297348216,70,255,64,64
531,18.084391436999795,13.819973945617676,14.713207244873047,-15.015853881835938,-1.5509849786758423,1.658798098564148,-0.003004363039508462,0.0,0.0,0.0,2.3678729842045603,70,255,64,64
532,18.116985163999743,13.765538215637207,14.760591506958008,-15.016738891601562,-1.562238097190857,1.649705171585083,-0.006649513263255358,0.0,0.0,0.0,2.369768888584588,70,255,64,64
533,18.150173863999953,13.708693504333496,14.8064546585083,-15.015426635742188,-1.5339405536651611,1.6752219200134277,-0.008663969114422798,0.0,0.0,0.0,2.37462170072293,70,255,64,64
534,18.1866143569996,13.637948036193848,14.864578247070312,-15.013275146484375,-1.535880446434021,1.6885478496551514,-0.01555220503360033,0.0,0.0,0.0,2.3790310965397743,70,255,64,64
535,18.218539773999964,13.582680702209473,14.912721633911133,-15.011856079101562,-1.496917486190796,1.7310144901275635,-0.025986075401306152,0.0,0.0,0.0,2.381305436110702,70,255,64,64
536,18.251847898999586,13.528977394104004,14.962586402893066,-15.011016845703125,-1.482918620109558,1.7461309432983398,-0.03767203539609909,0.0,0.0,0.0,2.3859832785654262,70,255,64,64
537,18.289025065999795,13.474061965942383,15.013001441955566,-15.011795043945312,-1.4887669086456299,1.7437138557434082,-0.06039411202073097,0.0,0.0,0.0,2.39048668396875,70,255,64,64
538,18.322131046999857,13.420005798339844,15.064132690429688,-15.012557983398438,-1.4886624813079834,1.729560136795044,-0.041954249143600464,0.0,0.0,0.0,2.3926939118802077,70,255,64,64
539,18.354029763999733,13.366124153137207,15.115198135375977,-15.012832641601562,-1.4993507862091064,1.7234317064285278,-0.03673810511827469,0.0,0.0,0.0,2.397736074772055,70,255,64,64
540,18.390655592999792,13.296971321105957,15.177023887634277,-15.013412475585938,-1.4884122610092163,1.7108134031295776,-0.016226835548877716,0.0,0.0,0.0,2.4021020610631307,70,255,64,64
541,18.42337445799967,13.23887825012207,15.22362995147705,-15.014389038085938,-1.5119673013687134,1.6808167695999146,-0.015810655429959297,0.0,0.0,0.0,2.4038365778810995,70,255,64,64
542,18.455962407999777,13.181943893432617,15.270963668823242,-15.014755249023438,-1.478467583656311,1.7077529430389404,0.009870716370642185,0.0,0.0,0.0,2.4077668710178384,70,255,64,64
543,18.492414413999995,13.126236915588379,15.318893432617188,-15.01416015625,-1.476163625717163,1.704220175743103,0.020056968554854393,0.0,0.0,0.0,2.412429000822131,70,255,64,64
544,18.52549628099996,13.069063186645508,15.36495590209961,-15.011505126953125,-1.4876587390899658,1.6866097450256348,0.020508989691734314,0.0,0.0,0.0,2.414914529067502,70,255,64,64
545,18.557559926999602,13.010906219482422,15.409276962280273,-15.006744384765625,-1.4873430728912354,1.6823973655700684,0.019808748736977577,0.0,0.0,0.0,2.4201409827067826,70,255,64,64
546,18.594214250999812,12.938800811767578,15.465394973754883,-15.001251220703125,-1.5031415224075317,1.6766116619110107,0.027350254356861115,0.0,0.0,0.0,2.4239434441111976,70,255,64,64
547,18.626437185999748,12.881685256958008,15.511205673217773,-14.996871948242188,-1.515495777130127,1.672249674797058,0.03139813244342804,0.0,0.0,0.0,2.4261890215423523,70,255,64,64
548,18.65928458999997,12.822954177856445,15.554516792297363,-14.993881225585938,-1.530651569366455,1.650622010231018,0.009742203168570995,0.0,0.0,0.0,2.430366189712142,70,255,64,64
549,18.695982680999805,12.763752937316895,15.597148895263672,-14.992691040039062,-1.5446070432662964,1.628969430923462,-0.024016939103603363,0.0,0.0,0.0,2.434641362210046,70,255,64,64
550,18.728670433999923,12.705572128295898,15.6406888961792,-14.991622924804688,-1.5338375568389893,1.636244773864746,-0.002912392606958747,0.0,0.0,0.0,2.4383213182043173,70,255,64,64
551,18.76152343199965,12.647716522216797,15.684815406799316,-14.990158081054688,-1.549446702003479,1.6312425136566162,0.008199102245271206,0.0,0.0,0.0,2.4398292000135204,70,255,64,64
552,18.79789787699974,12.570725440979004,15.733719825744629,-14.986114501953125,-1.5485223531723022,1.6298366785049438,-0.01041415985673666,0.0,0.0,0.0,2.443752568931425,70,255,64,64
553,18.830174040999736,12.51037311553955,15.774101257324219,-14.98394775390625,-1.5574270486831665,1.6223410367965698,-0.03590122610330582,0.0,0.0,0.0,2.44570812811987,70,255,64,64
554,18.863109489999715,12.450803756713867,15.815376281738281,-14.982315063476562,-1.5414292812347412,1.6225497722625732,-0.03777110576629639,0.0,0.0,0.0,2.4494831589650574,70,255,64,64
555,18.899196671000027,12.39110279083252,15.857001304626465,-14.981201171875,-1.5331969261169434,1.6439062356948853,-0.05869574844837189,0.0,0.0,0.0,2.453741020915876,70,255,64,64
556,18.931861692999973,12.328755378723145,15.896968841552734,-14.979843139648438,-1.545287013053894,1.6197606325149536,-0.03908475860953331,0.0,0.0,0.0,2.4558262760494083,70,255,64,64
557,18.96513065099998,12.267208099365234,15.937255859375,-14.978179931640625,-1.5529080629348755,1.5928430557250977,-0.033390019088983536,0.0,0.0,0.0,2.4605057164007866,70,255,64,64
558,19.001356955999654,12.191232681274414,15.988351821899414,-14.976455688476562,-1.566967248916626,1.5755506753921509,-0.022952035069465637,0.0,0.0,0.0,2.464596331835148,70,255,64,64
559,19.034931762999804,12.127095222473145,16.0274658203125,-14.972076416015625,-1.566646933555603,1.5512018203735352,-0.004943187348544598,0.0,0.0,0.0,2.4664605445982035,70,255,64,64
560,19.066402133999873,12.060277938842773,16.06550407409668,-14.965347290039062,-1.5826302766799927,1.5397095680236816,-0.011603722348809242,0.0,0.0,0.0,2.470066997346389,70,255,64,64
561,19.103346072000022,11.99425983428955,16.104007720947266,-14.959335327148438,-1.5982365608215332,1.537037968635559,-0.019315868616104126,0.0,0.0,0.0,2.4742827813519845,70,255,64,64
562,19.13655951499959,11.929206848144531,16.14365005493164,-14.954315185546875,-1.6062508821487427,1.5368283987045288,-0.019731437787413597,0.0,0.0,0.0,2.476389874406455,70,255,64,64
563,19.19095775200003,11.859943389892578,16.180675506591797,-14.94940185546875,-1.6112900972366333,1.5284254550933838,-0.008053474128246307,0.0,0.0,0.0,2.4807047280046013,70,255,64,64
564,19.238872803999584,11.773019790649414,16.226564407348633,-14.943740844726562,-1.6209917068481445,1.519713282585144,0.009082694537937641,0.0,0.0,0.0,2.483388395435074,70,255,64,64
565,19.28189547399961,11.7046537399292,16.263736724853516,-14.938919067382812,-1.6412891149520874,1.4909716844558716,0.01518744695931673,0.0,0.0,0.0,2.485335965140249,70,255,64,64
566,19.339756459,11.636979103088379,16.30109405517578,-14.93487548828125,-1.668488621711731,1.449966549873352,-0.002889669965952635,0.0,0.0,0.0,2.485335965140249,70,255,64,64
567,19.39029723099975,11.56601333618164,16.33420181274414,-14.930191040039062,-1.6687860488891602,1.4489818811416626,-0.002904606983065605,0.0,0.0,0.0,2.4874659613800945,70,255,64,64
568,19.415275972000018,11.496903419494629,16.36862564086914,-14.92578125,-1.6495951414108276,1.4595757722854614,0.010121450759470463,0.0,0.0,0.0,2.4890854296389717,70,255,64,64
569,19.45761685799971,11.429304122924805,16.40393829345703,-14.921859741210938,-1.6562397480010986,1.4426969289779663,-0.008345636539161205,0.0,0.0,0.0,2.4890854296389717,70,255,64,64
570,19.495512722999592,11.34410572052002,16.447181701660156,-14.91748046875,-1.672414779663086,1.4174774885177612,-0.004568532109260559,0.0,0.0,0.0,2.491238595380301,70,255,64,64
571,19.50593967499981,11.27453327178955,16.480531692504883,-14.913925170898438,-1.6660165786743164,1.4177693128585815,0.009206087328493595,0.0,0.0,0.0,2.493087361809034,70,255,64,64
572,19.513921226999628,11.206562042236328,16.515058517456055,-14.910873413085938,-1.6568422317504883,1.4229633808135986,-0.006230351515114307,0.0,0.0,0.0,2.493087361809034,70,255,64,64
573,19.522383815000012,11.139856338500977,16.550355911254883,-14.908523559570312,-1.6688647270202637,1.4009208679199219,-0.011517558246850967,0.0,0.0,0.0,2.497672526257823,70,255,64,64
574,19.55364046199975,11.071737289428711,16.58411979675293,-14.906402587890625,-1.6700854301452637,1.3879472017288208,-0.025432460010051727,0.0,0.0,0.0,2.5067509760977944,70,255,64,64
575,19.58584882599962,11.002864837646484,16.617023468017578,-14.90447998046875,-1.652721881866455,1.3896716833114624,-0.01911970041692257,0.0,0.0,0.0,2.5209205909936703,70,255,64,64
576,19.624589492999803,10.919222831726074,16.659788131713867,-14.90289306640625,-1.6457263231277466,1.3837069272994995,-0.028276870027184486,0.0,0.0,0.0,2.526736668498294,70,255,64,64
577,19.654962038999656,10.853899955749512,16.69466781616211,-14.901840209960938,-1.641547679901123,1.36918044090271,-0.027448121458292007,0.0,0.0,0.0,2.5285976854680414,70,255,64,64
578,19.68715104099965,10.78629207611084,16.727500915527344,-14.900482177734375,-1.654670238494873,1.3487945795059204,-0.04040416330099106,0.0,0.0,0.0,2.5325226522826,70,255,64,64
579,19.73617987999978,10.718804359436035,16.76034164428711,-14.899917602539062,-1.6448050737380981,1.3513907194137573,-0.055346615612506866,0.0,0.0,0.0,2.536652416184986,70,255,64,64
580,19.761315108999952,10.652579307556152,16.793548583984375,-14.899612426757812,-1.6604681015014648,1.316719651222229,-0.06036696210503578,0.0,0.0,0.0,2.538837806175505,70,255,64,64
581,19.792271158999938,10.58753776550293,16.8272647857666,-14.899826049804688,-1.6456596851348877,1.3333293199539185,-0.0662989616394043,0.0,0.0,0.0,2.542504712680435,70,255,64,64
582,19.83309944099983,10.503222465515137,16.866676330566406,-14.900634765625,-1.6241986751556396,1.3638930320739746,-0.07534778863191605,0.0,0.0,0.0,2.5462312739937834,70,255,64,64
583,19.86245889499969,10.43748950958252,16.899646759033203,-14.901580810546875,-1.6351048946380615,1.3542951345443726,-0.07124567031860352,0.0,0.0,0.0,2.5480917583313123,70,255,64,64
584,19.89499928899977,10.372302055358887,16.932802200317383,-14.902145385742188,-1.65218186378479,1.3322144746780396,-0.048124007880687714,0.0,0.0,0.0,2.552097152610792,70,255,64,64
585,19.931160945999636,10.30699634552002,16.96552848815918,-14.902877807617188,-1.6636512279510498,1.3240671157836914,-0.05464297905564308,0.0,0.0,0.0,2.5561555437959633,70,255,64,64
586,19.964538054999593,10.239836692810059,16.995901107788086,-14.90484619140625,-1.6601775884628296,1.3298568725585938,-0.07671845704317093,0.0,0.0,0.0,2.5581113693005175,70,255,64,64
587,19.99635497899999,10.1739501953125,17.02740478515625,-14.90716552734375,-1.6706010103225708,1.3116936683654785,-0.06057235598564148,0.0,0.0,0.0,2.5628139791533795,70,255,64,64
588,20.033510856999783,10.092887878417969,17.067472457885742,-14.909500122070312,-1.6696417331695557,1.2855556011199951,-0.05389554426074028,0.0,0.0,0.0,2.56692643250868,70,255,64,64
589,20.066032470999744,10.0269193649292,17.098989486694336,-14.912429809570312,-1.6601365804672241,1.3094674348831177,-0.059455543756484985,0.0,0.0,0.0,2.569284395337836,70,255,64,64
590,20.098351359999924,9.959463119506836,17.13011932373047,-14.916748046875,-1.6816325187683105,1.2969520092010498,-0.0729779377579689,0.0,0.0,0.0,2.573490325647398,70,255,64,64
591,20.13492533999988,9.893460273742676,17.162460327148438,-14.921066284179688,-1.6595147848129272,1.3102855682373047,-0.0767732635140419,0.0,0.0,0.0,2.5778621708928724,70,255,64,64
592,20.168087387000014,9.829130172729492,17.196060180664062,-14.925033569335938,-1.6476960182189941,1.325911283493042,-0.07251574844121933,0.0,0.0,0.0,2.5807479722500823,70,255,64,64
593,20.200507578999805,9.762359619140625,17.227535247802734,-14.92852783203125,-1.6401524543762207,1.315305471420288,-0.06622784584760666,0.0,0.0,0.0,2.5857142350508617,70,255,64,64
594,20.241460989999723,9.679677963256836,17.267465591430664,-14.932098388671875,-1.6223574876785278,1.331181287765503,-0.049448974430561066,0.0,0.0,0.0,2.5902954047580162,70,255,64,64
595,20.278268862000004,9.615370750427246,17.30099868774414,-14.934432983398438,-1.6088380813598633,1.3468362092971802,-0.03028339333832264,0.0,0.0,0.0,2.592773742468444,70,255,64,64
596,20.305248812999707,9.552331924438477,17.335668563842773,-14.936431884765625,-1.624807596206665,1.3409754037857056,-0.04688560217618942,0.0,0.0,0.0,2.5976553167465593,70,255,64,64
597,20.34488045099988,9.485697746276855,17.368650436401367,-14.940460205078125,-1.622928500175476,1.3409919738769531,-0.04348824545741081,0.0,0.0,0.0,2.602349670800042,70,255,64,64
598,20.378415521999614,9.40447998046875,17.411745071411133,-14.945343017578125,-1.6213552951812744,1.3525959253311157,-0.05747561901807785,0.0,0.0,0.0,2.604647712504671,70,255,64,64
599,20.409215187999962,9.35680866241455,17.438587188720703,-14.948165893554688,-1.613848090171814,1.3553632497787476,-0.04415569081902504,0.0,0.0,0.0,2.6102728413591367,70,255,64,64
600,20.445760935999715,9.276728630065918,17.481225967407227,-14.952316284179688,-1.6252516508102417,1.3340134620666504,-0.038397692143917084,0.0,0.0,0.0,2.6147064719419006,70,255,64,64
601,20.479980687999614,9.211539268493652,17.513029098510742,-14.955062866210938,-1.6234384775161743,1.3377068042755127,-0.03495912626385689,0.0,0.0,0.0,2.619529456676034,70,255,64,64
602,20.510893207999743,9.147303581237793,17.545639038085938,-14.9576416015625,-1.6337802410125732,1.3183842897415161,-0.039139699190855026,0.0,0.0,0.0,2.62205386707332,70,255,64,64
603,20.547372344999985,9.083953857421875,17.578977584838867,-14.960403442382812,-1.6364198923110962,1.331861138343811,-0.05224084109067917,0.0,0.0,0.0,2.6269934982631993,70,255,64,64
604,20.582035578999694,9.018773078918457,17.613086700439453,-14.961868286132812,-1.6261012554168701,1.3397451639175415,-0.042069774121046066,0.0,0.0,0.0,2.629548535013021,70,255,64,64
605,20.613138145999983,8.952303886413574,17.648542404174805,-14.961944580078125,-1.6185834407806396,1.3581465482711792,-0.05132342129945755,0.0,0.0,0.0,2.634798957102112,70,255,64,64
606,20.649303787999997,8.871798515319824,17.69510269165039,-14.962371826171875,-1.5943034887313843,1.4020205736160278,-0.03317548707127571,0.0,0.0,0.0,2.6393484351922947,70,255,64,64
607,20.682335791999776,8.80907917022705,17.73379135131836,-14.962387084960938,-1.5943348407745361,1.4087574481964111,-0.044848836958408356,0.0,0.0,0.0,2.6443447917133924,70,255,64,64
608,20.717161398999906,8.744537353515625,17.771839141845703,-14.964004516601562,-1.6006808280944824,1.4166266918182373,-0.054813235998153687,0.0,0.0,0.0,2.6468055525606258,70,255,64,64
609,20.752003724999668,8.680182456970215,17.809844970703125,-14.965469360351562,-1.6065691709518433,1.3983755111694336,-0.04344693571329117,0.0,0.0,0.0,2.6512751358181057,70,255,64,64
610,20.784549951999907,8.616907119750977,17.847944259643555,-14.966751098632812,-1.619649052619934,1.3693149089813232,-0.044289302080869675,0.0,0.0,0.0,2.6558672244857293,70,255,64,64
611,20.81681355799992,8.554057121276855,17.885847091674805,-14.968658447265625,-1.6347068548202515,1.3470818996429443,-0.06060296669602394,0.0,0.0,0.0,2.6590718062254215,70,255,64,64
612,20.85449491199961,8.466358184814453,17.928831100463867,-14.968353271484375,-1.6379426717758179,1.33484947681427,-0.044889185577631,0.0,0.0,0.0,2.6635312694707594,70,255,64,64
613,20.887208714999815,8.398219108581543,17.96378517150879,-14.967788696289062,-1.6402854919433594,1.300116777420044,-0.026630623266100883,0.0,0.0,0.0,2.668523631250222,70,255,64,64
614,20.919232802999886,8.331219673156738,17.998342514038086,-14.967254638671875,-1.6579428911209106,1.2752034664154053,-0.03931902348995209,0.0,0.0,0.0,2.671519421160452,70,255,64,64
615,20.958838098999877,8.264103889465332,18.032747268676758,-14.968048095703125,-1.6516798734664917,1.268375277519226,-0.042326245456933975,0.0,0.0,0.0,2.6765469366663033,70,255,64,64
616,20.991176767999605,8.195511817932129,18.067726135253906,-14.971221923828125,-1.6416476964950562,1.2652785778045654,-0.036877065896987915,0.0,0.0,0.0,2.680492143505147,70,255,64,64
617,21.024472024999795,8.128482818603516,18.103004455566406,-14.974441528320312,-1.648699402809143,1.2629801034927368,-0.04457051679491997,0.0,0.0,0.0,2.682390444730155,70,255,64,64
618,21.060080192999976,8.046769142150879,18.14737892150879,-14.97747802734375,-1.6481540203094482,1.2334198951721191,-0.03364777937531471,0.0,0.0,0.0,2.6861303218489536,70,255,64,64
619,21.092462255999635,7.979761123657227,18.18211555480957,-14.980361938476562,-1.6400704383850098,1.2289702892303467,-0.02994571439921856,0.0,0.0,0.0,2.6880105135785497,70,255,64,64
620,21.1278420069998,7.911521911621094,18.216787338256836,-14.983245849609375,-1.6405130624771118,1.2377562522888184,-0.020104432478547096,0.0,0.0,0.0,2.691456910345221,70,255,64,64
621,21.163469155999792,7.844564437866211,18.251630783081055,-14.986129760742188,-1.6445865631103516,1.2076503038406372,-0.015080763958394527,0.0,0.0,0.0,2.695183471658569,70,255,64,64
622,21.195152983999833,7.779343605041504,18.28696060180664,-14.9881591796875,-1.6309398412704468,1.2266004085540771,-0.013049340806901455,0.0,0.0,0.0,2.6966894892550086,70,255,64,64
623,21.22636778299966,7.711850166320801,18.319541931152344,-14.991058349609375,-1.6319665908813477,1.2334564924240112,-0.025246337056159973,0.0,0.0,0.0,2.700663724549734,70,255,64,64
624,21.263638219999848,7.628078937530518,18.359722137451172,-14.9952392578125,-1.643183708190918,1.211026906967163,-0.04686909541487694,0.0,0.0,0.0,2.704488556507306,70,255,64,64
625,21.296185690999664,7.562476634979248,18.392154693603516,-14.99822998046875,-1.6340768337249756,1.2013487815856934,-0.009991778992116451,0.0,0.0,0.0,2.7078681079306164,70,255,64,64
626,21.327882764999686,7.498309135437012,18.424877166748047,-15.00048828125,-1.6346348524093628,1.1874535083770752,-0.0032147958409041166,0.0,0.0,0.0,2.7100577589788797,70,255,64,64
627,21.36479105599983,7.431178569793701,18.4556884765625,-14.999984741210938,-1.6203193664550781,1.1992590427398682,-0.0009412234066985548,0.0,0.0,0.0,2.713562212657315,70,255,64,64
628,21.397172120999585,7.366079330444336,18.487842559814453,-14.999282836914062,-1.6146655082702637,1.2075532674789429,0.0018020403804257512,0.0,0.0,0.0,2.7153257579311654,70,255,64,64
629,21.435841888999676,7.302474021911621,18.520824432373047,-14.999099731445312,-1.6114540100097656,1.2190285921096802,-0.03393689543008804,0.0,0.0,0.0,2.719470435535656,70,255,64,64
630,21.467027679999774,7.220762729644775,18.560022354125977,-14.9993896484375,-1.6090716123580933,1.1947777271270752,-0.014646675437688828,0.0,0.0,0.0,2.72372137326764,70,255,64,64
631,21.49991511099961,7.152309894561768,18.58797836303711,-14.999435424804688,-1.6173244714736938,1.17661452293396,-0.02617630362510681,0.0,0.0,0.0,2.7276247684773693,70,255,64,64
632,21.532814398000028,7.085397243499756,18.616455078125,-14.999465942382812,-1.630882740020752,1.1484401226043701,-0.020440703257918358,0.0,0.0,0.0,2.7295526307904776,70,255,64,64
633,21.569786625999768,7.019730091094971,18.645126342773438,-14.999664306640625,-1.6313717365264893,1.1370761394500732,-0.020596666261553764,0.0,0.0,0.0,2.7331441698365584,70,255,64,64
634,21.60239329399974,6.9517316818237305,18.671640396118164,-14.99810791015625,-1.6215463876724243,1.115944504737854,0.020966265350580215,0.0,0.0,0.0,2.735187613340976,70,255,64,64
635,21.634910507999848,6.881712913513184,18.696083068847656,-14.995285034179688,-1.6294407844543457,1.116203784942627,-0.015008107759058475,0.0,0.0,0.0,2.7390313537422877,70,255,64,64
636,21.67203543200003,6.796291351318359,18.72703742980957,-14.9935302734375,-1.6451538801193237,1.0724142789840698,-0.04443870112299919,0.0,0.0,0.0,2.742941140538633,70,255,64,64
637,21.70645806499988,6.729606628417969,18.75217056274414,-14.99261474609375,-1.6412184238433838,1.0556437969207764,-0.03221582621335983,0.0,0.0,0.0,2.7466810176574312,70,255,64,64
638,21.73742176399992,6.661305904388428,18.775493621826172,-14.990478515625,-1.6579099893569946,1.0277420282363892,-0.02666602097451687,0.0,0.0,0.0,2.7488799897695095,70,255,64,64
639,21.77631953199989,6.593297958374023,18.798189163208008,-14.988128662109375,-1.663385033607483,1.0004061460494995,-0.017661089077591896,0.0,0.0,0.0,2.7538502473119246,70,255,64,64
640,21.809145257999717,6.526645660400391,18.821386337280273,-14.986068725585938,-1.6632219552993774,0.9999887347221375,-0.010740508325397968,0.0,0.0,0.0,2.756285974444911,70,255,64,64
641,21.84189183599983,6.461438179016113,18.845115661621094,-14.983917236328125,-1.6550090312957764,0.9964026808738708,-0.0015607791719958186,0.0,0.0,0.0,2.760786450371036,70,255,64,64
642,21.879101014999833,6.375828266143799,18.875343322753906,-14.981460571289062,-1.6416451930999756,1.0274701118469238,-0.0106585081666708,0.0,0.0,0.0,2.7648134162553446,70,255,64,64
643,21.9105727189999,6.309492588043213,18.901456832885742,-14.979904174804688,-1.6372575759887695,1.0474814176559448,-0.015636928379535675,0.0,0.0,0.0,2.767206000178672,70,255,64,64
644,21.942406353000024,6.244713306427002,18.92833137512207,-14.9781494140625,-1.6394500732421875,1.0253159999847412,0.006609437987208366,0.0,0.0,0.0,2.771446817898514,70,255,64,64
645,21.97992049100003,6.17869758605957,18.954633712768555,-14.975418090820312,-1.6402678489685059,1.033312201499939,0.015870651230216026,0.0,0.0,0.0,2.775916134839885,70,255,64,64
646,22.01214887299966,6.108177185058594,18.980594635009766,-14.970260620117188,-1.6493834257125854,1.0130046606063843,0.005226212088018656,0.0,0.0,0.0,2.7783902114925687,70,255,64,64
647,22.05006627199964,6.038997650146484,19.005834579467773,-14.965347290039062,-1.6617070436477661,0.9776626825332642,0.014955096878111362,0.0,0.0,0.0,2.782561254391851,70,255,64,64
648,22.107730414999878,5.954610347747803,19.037765502929688,-14.959442138671875,-1.6645256280899048,0.9674436450004578,0.03609960526227951,0.0,0.0,0.0,2.787199682062442,70,255,64,64
649,22.13147765299982,5.884860992431641,19.061725616455078,-14.955718994140625,-1.6574095487594604,0.9516967535018921,0.029758457094430923,0.0,0.0,0.0,2.7900660423436943,70,255,64,64
650,22.15207812499966,5.813495635986328,19.084997177124023,-14.953567504882812,-1.6480348110198975,0.9641045331954956,0.013033241964876652,0.0,0.0,0.0,2.7900660423436943,70,255,64,64
651,22.185307247999845,5.744017601013184,19.109025955200195,-14.952041625976562,-1.6563606262207031,0.9529082775115967,-0.014707871712744236,0.0,0.0,0.0,2.7987982812419547,70,255,64,64
652,22.21758878499986,5.675955295562744,19.134000778198242,-14.951934814453125,-1.6679424047470093,0.9627665281295776,-0.05605597421526909,0.0,0.0,0.0,2.8009250816884923,70,255,64,64
