idx,t,px,py,pz,vx,vy,vz,ax,ay,az,yaw,mode,ledr,ledg,ledb
0,0.011649434999981167,-0.26250314712524414,0.5782961249351501,-14.904296875,0.1336418241262436,-0.20028012990951538,-0.17500033974647522,0.0,0.0,0.0,-0.0007443164640858057,70,255,255,255
1,0.045616390999839496,-0.26163041591644287,0.5771207809448242,-14.905014038085938,0.13129660487174988,-0.2052050530910492,-0.17170698940753937,0.0,0.0,0.0,-0.0007043258753966333,70,255,255,255
2,0.0817384659999334,-0.26071426272392273,0.5766915082931519,-14.903823852539062,0.13292136788368225,-0.20073595643043518,-0.21654139459133148,0.0,0.0,0.0,0.0003236377256357209,70,255,255,255
3,0.11083956499987835,-0.2598637044429779,0.5758154392242432,-14.903427124023438,0.132167249917984,-0.22218750417232513,-0.2708367109298706,0.0,0.0,0.0,0.0007408459022531335,70,255,255,255
4,0.1452538009998534,-0.258730411529541,0.57370525598526,-14.90570068359375,0.13032324612140656,-0.24135130643844604,-0.32962682843208313,0.0,0.0,0.0,0.0003822876068609112,70,255,255,255
5,0.18016256099963357,-0.25745683908462524,0.5711701512336731,-14.910964965820312,0.1129903718829155,-0.20294189453125,-0.4039069712162018,0.0,0.0,0.0,0.0006003733873899984,70,255,255,255
6,0.21262395999974615,-0.25997892022132874,0.5686998963356018,-14.916061401367188,0.07043853402137756,-0.18191751837730408,-0.44738563895225525,0.0,0.0,0.0,0.0013352582560723155,70,255,255,255
7,0.24805033299981005,-0.2644682228565216,0.5666016936302185,-14.922607421875,0.016540251672267914,-0.15066224336624146,-0.4825746417045593,0.0,0.0,0.0,0.006046505957497203,70,255,255,255
8,0.28414084799987904,-0.27223777770996094,0.5649920701980591,-14.932754516601562,-0.07444489002227783,-0.10469230264425278,-0.5099932551383972,0.0,0.0,0.0,0.013927654227274286,70,255,255,255
9,0.31706520099987756,-0.28073200583457947,0.565166711807251,-14.9425048828125,-0.16188843548297882,-0.03484535217285156,-0.5210813283920288,0.0,0.0,0.0,0.018247284870625997,70,255,255,255
10,0.34798253099961585,-0.29309746623039246,0.5688318610191345,-14.952774047851562,-0.26893332600593567,0.03216908499598503,-0.5445734262466431,0.0,0.0,0.0,0.02739415298347693,70,255,255,255
11,0.38647651599967503,-0.3082408905029297,0.5737813711166382,-14.963516235351562,-0.3764788806438446,0.06841938197612762,-0.5290231108665466,0.0,0.0,0.0,0.03731299243374697,70,255,255,255
12,0.4169984269997258,-0.3262483775615692,0.5795460343360901,-14.97442626953125,-0.4766014516353607,0.1282801777124405,-0.49346494674682617,0.0,0.0,0.0,0.04141617882069169,70,255,255,255
13,0.44978181099986614,-0.3474249839782715,0.5877238512039185,-14.983978271484375,-0.5837845802307129,0.20271094143390656,-0.4517136514186859,0.0,0.0,0.0,0.04628928923996753,70,255,255,255
14,0.48686425099958797,-0.378152996301651,0.6032739877700806,-14.991500854492188,-0.6898385882377625,0.29278331995010376,-0.35364142060279846,0.0,0.0,0.0,0.04561729879553488,70,255,255,255
15,0.519126961999973,-0.4053727686405182,0.6169160604476929,-14.995803833007812,-0.7761340141296387,0.3259583115577698,-0.2876245975494385,0.0,0.0,0.0,0.043786962273783064,70,255,255,255
16,0.5519052279996686,-0.4349413514137268,0.6308315396308899,-14.99908447265625,-0.8586458563804626,0.353380024433136,-0.2433464080095291,0.0,0.0,0.0,0.03968566090554741,70,255,255,255
17,0.5903544959996907,-0.46833497285842896,0.646181046962738,-15.0009765625,-0.9373461604118347,0.38508227467536926,-0.1931173950433731,0.0,0.0,0.0,0.03755619729792005,70,255,255,255
18,0.6265217369996208,-0.5054401159286499,0.6631780862808228,-15.00189208984375,-1.0124056339263916,0.4295752942562103,-0.14796562492847443,0.0,0.0,0.0,0.03755493229640226,70,255,255,255
19,0.6586980869997205,-0.544197142124176,0.6802060604095459,-15.00177001953125,-1.0733765363693237,0.43756699562072754,-0.09442488104104996,0.0,0.0,0.0,0.04293493797847185,70,255,255,255
20,0.6913473989998238,-0.5950466990470886,0.7012253999710083,-15.000396728515625,-1.173518180847168,0.4379083216190338,-0.07104504108428955,0.0,0.0,0.0,0.047738444185944945,70,255,255,255
21,0.7246080709996932,-0.6397252082824707,0.717842698097229,-14.997344970703125,-1.230114221572876,0.4131782352924347,-0.06111990660429001,0.0,0.0,0.0,0.059930607876977064,70,255,255,255
22,0.757085540999924,-0.6862862706184387,0.7332965135574341,-14.993820190429688,-1.2828513383865356,0.39082780480384827,-0.030787304043769836,0.0,0.0,0.0,0.07887590726931283,70,255,255,255
23,0.7953540059997977,-0.733514130115509,0.7460380792617798,-14.990081787109375,-1.319081425666809,0.2860579490661621,-0.02508668601512909,0.0,0.0,0.0,0.09073298287737493,70,255,255,255
24,0.8314764679998916,-0.7939546704292297,0.7583135962486267,-14.984527587890625,-1.347338318824768,0.2017454355955124,-0.006127467844635248,0.0,0.0,0.0,0.12036533550354932,70,255,255,255
25,0.8608288739997079,-0.8318982124328613,0.7634969353675842,-14.9788818359375,-1.3652935028076172,0.1363590657711029,-0.0033862353302538395,0.0,0.0,0.0,0.15954969794578133,70,255,255,255
26,0.8964121750000231,-0.8945909738540649,0.7672858834266663,-14.970138549804688,-1.3602596521377563,-0.01336315181106329,0.012993410229682922,0.0,0.0,0.0,0.1829310538941865,70,255,255,255
27,0.9294171409997034,-0.9435060024261475,0.7654025554656982,-14.963653564453125,-1.3370835781097412,-0.14144855737686157,0.006603355519473553,0.0,0.0,0.0,0.23566831802523744,70,255,255,255
28,0.9615449369998714,-0.9917780756950378,0.7598530650138855,-14.95684814453125,-1.287856936454773,-0.25951188802719116,0.014108453877270222,0.0,0.0,0.0,0.29765305950169546,70,255,255,255
29,0.9974038179998388,-1.0401424169540405,0.75040203332901,-14.948013305664062,-1.2395482063293457,-0.39659714698791504,0.0030852584168314934,0.0,0.0,0.0,0.3324722262788002,70,255,255,255
30,1.0307841709995955,-1.0857480764389038,0.7354303002357483,-14.940628051757812,-1.1646000146865845,-0.5630833506584167,-0.008361339569091797,0.0,0.0,0.0,0.4110643737339651,70,255,255,255
31,1.0626469249996262,-1.1280312538146973,0.7154167890548706,-14.93402099609375,-1.0688605308532715,-0.7154364585876465,-0.004517131485044956,0.0,0.0,0.0,0.49603309423467484,70,255,255,255
32,1.0999244449999424,-1.178695797920227,0.6860564947128296,-14.926193237304688,-0.908161997795105,-0.9263113737106323,-0.032290685921907425,0.0,0.0,0.0,0.5394018736382882,70,255,255,255
33,1.1346516119997432,-1.2153462171554565,0.658292293548584,-14.921340942382812,-0.7795906066894531,-1.0479191541671753,-0.05850151926279068,0.0,0.0,0.0,0.6267886112507354,70,255,255,255
34,1.165484935999757,-1.24652898311615,0.6261587142944336,-14.917755126953125,-0.6265407800674438,-1.1665641069412231,-0.0699346587061882,0.0,0.0,0.0,0.713850609657761,70,255,255,255
35,1.2018601529998705,-1.2715802192687988,0.5896193385124207,-14.915206909179688,-0.4505482017993927,-1.315987467765808,-0.09740615636110306,0.0,0.0,0.0,0.799437816032128,70,255,255,255
36,1.2344101819999196,-1.2913380861282349,0.5498461723327637,-14.91363525390625,-0.2532082200050354,-1.465894103050232,-0.1266409307718277,0.0,0.0,0.0,0.8425635819862717,70,255,255,255
37,1.266759355999966,-1.3038411140441895,0.5054570436477661,-14.913558959960938,-0.027180055156350136,-1.6161372661590576,-0.16163890063762665,0.0,0.0,0.0,0.9264847147826851,70,255,255,255
38,1.3036983419997341,-1.308394432067871,0.4432515799999237,-14.915008544921875,0.2562059462070465,-1.7791401147842407,-0.18751411139965057,0.0,0.0,0.0,0.9674395383952235,70,255,255,255
39,1.33606820399973,-1.3029563426971436,0.38844096660614014,-14.918045043945312,0.4967714548110962,-1.8900399208068848,-0.2325291782617569,0.0,0.0,0.0,1.0503196415215248,70,255,255,255
40,1.3690230170000177,-1.2901227474212646,0.33224400877952576,-14.921676635742188,0.7253896594047546,-1.9790501594543457,-0.2300085723400116,0.0,0.0,0.0,1.1328223081423348,70,255,255,255
41,1.4060661619996608,-1.269521951675415,0.27277258038520813,-14.925750732421875,0.9360592365264893,-2.047738790512085,-0.24195052683353424,0.0,0.0,0.0,1.1727014144115628,70,255,255,255
42,1.4382306159996006,-1.2411905527114868,0.21010807156562805,-14.9305419921875,1.1782063245773315,-2.1361873149871826,-0.26207980513572693,0.0,0.0,0.0,1.251884384154562,70,255,255,255
43,1.4708856869997362,-1.205679178237915,0.14493711292743683,-14.93670654296875,1.4166115522384644,-2.204275131225586,-0.3077264428138733,0.0,0.0,0.0,1.329210198511394,70,255,255,255
44,1.509414022999863,-1.1527020931243896,0.06213626638054848,-14.944305419921875,1.7070804834365845,-2.263010025024414,-0.2969575524330139,0.0,0.0,0.0,1.405684333951619,70,255,255,255
45,1.5409987339999134,-1.101436972618103,-0.00641764746978879,-14.95074462890625,1.9142156839370728,-2.3010857105255127,-0.31310969591140747,0.0,0.0,0.0,1.443147686796036,70,255,255,255
46,1.5744310369996128,-1.042761206626892,-0.07676978409290314,-14.957901000976562,2.1474828720092773,-2.3268826007843018,-0.29983627796173096,0.0,0.0,0.0,1.5136213208261489,70,255,255,255
47,1.6130568349999521,-0.978499710559845,-0.1468459814786911,-14.964447021484375,2.324814558029175,-2.348325490951538,-0.2934238612651825,0.0,0.0,0.0,1.5477803565480504,70,255,255,255
48,1.6434986139997818,-0.8908820152282715,-0.23422205448150635,-14.972579956054688,2.560720682144165,-2.360955238342285,-0.2962988317012787,0.0,0.0,0.0,1.6141045192837107,70,255,255,255
49,1.6765671549997023,-0.83330237865448,-0.2872968912124634,-14.977386474609375,2.7122058868408203,-2.3567099571228027,-0.2810734808444977,0.0,0.0,0.0,1.6756344594250103,70,255,255,255
50,1.713188713999898,-0.7284004092216492,-0.3763620853424072,-14.985595703125,2.9464144706726074,-2.3461287021636963,-0.2808953821659088,0.0,0.0,0.0,1.7339486325500395,70,255,255,255
51,1.7456950679998045,-0.6388404965400696,-0.4471101462841034,-14.991073608398438,3.1152732372283936,-2.334282636642456,-0.2718994617462158,0.0,0.0,0.0,1.7619606930018743,70,255,255,255
52,1.7801097339997796,-0.5438411831855774,-0.517796516418457,-14.9964599609375,3.2743170261383057,-2.3047332763671875,-0.24473552405834198,0.0,0.0,0.0,1.8125619521358705,70,255,255,255
53,1.8147280149996732,-0.4428943693637848,-0.5875421166419983,-15.0006103515625,3.4330637454986572,-2.2582316398620605,-0.20226579904556274,0.0,0.0,0.0,1.836354500156584,70,255,255,255
54,1.8473540249997313,-0.337057888507843,-0.6568146347999573,-15.004287719726562,3.5721399784088135,-2.2271251678466797,-0.1798904687166214,0.0,0.0,0.0,1.8832358558799573,70,255,255,255
55,1.883909788999972,-0.22984717786312103,-0.7228203415870667,-15.00531005859375,3.7259700298309326,-2.1659481525421143,-0.1468290090560913,0.0,0.0,0.0,1.9219197354519577,70,255,255,255
56,1.9187416119998488,-0.08787370473146439,-0.8033967614173889,-15.005966186523438,3.913266181945801,-2.087898015975952,-0.1173558384180069,0.0,0.0,0.0,1.9369040113252887,70,255,255,255
57,1.9514916289999746,0.03230522945523262,-0.8664697408676147,-15.00634765625,4.078607559204102,-2.043649196624756,-0.12709690630435944,0.0,0.0,0.0,1.9579191486451584,70,255,255,255
58,1.9843042620000233,0.15784811973571777,-0.9276726841926575,-15.007415771484375,4.237403869628906,-1.995624303817749,-0.14943674206733704,0.0,0.0,0.0,1.9643473537263372,70,255,255,255
59,2.0231542669998817,0.28745800256729126,-0.9850497245788574,-15.007293701171875,4.378922939300537,-1.9498083591461182,-0.1643545925617218,0.0,0.0,0.0,1.9644891670543838,70,255,255,255
60,2.05401183999993,0.42183274030685425,-1.0415071249008179,-15.0079345703125,4.495561122894287,-1.900041103363037,-0.12870801985263824,0.0,0.0,0.0,1.9650735977556018,70,255,255,255
61,2.086743655999726,0.5602089166641235,-1.0968297719955444,-15.0081787109375,4.598453521728516,-1.8458516597747803,-0.10795166343450546,0.0,0.0,0.0,1.9695375883747925,70,255,255,255
62,2.125074807999681,0.7387376427650452,-1.161171793937683,-15.007476806640625,4.730569839477539,-1.7570887804031372,-0.0873410776257515,0.0,0.0,0.0,1.971986231839066,70,255,255,255
63,2.156603716999598,0.8865936994552612,-1.2091954946517944,-15.006683349609375,4.854748249053955,-1.6802181005477905,-0.07672502100467682,0.0,0.0,0.0,1.9718630606386498,70,255,255,255
64,2.189056848999826,1.0384501218795776,-1.2554283142089844,-15.006729125976562,4.959244728088379,-1.6078760623931885,-0.08922362327575684,0.0,0.0,0.0,1.9665656337563187,70,255,255,255
65,2.229334631999791,1.194442629814148,-1.2996677160263062,-15.006927490234375,5.082414150238037,-1.5274426937103271,-0.06930083781480789,0.0,0.0,0.0,1.9511223620691125,70,255,255,255
66,2.2598842909997074,1.3512852191925049,-1.3393548727035522,-15.00543212890625,5.203866004943848,-1.4293891191482544,-0.04787802696228027,0.0,0.0,0.0,1.9407779786049724,70,255,255,255
67,2.2924156459998812,1.5120429992675781,-1.3759063482284546,-15.004302978515625,5.334949016571045,-1.33412766456604,-0.06859682500362396,0.0,0.0,0.0,1.9181532267222587,70,255,255,255
68,2.332259487999636,1.7197129726409912,-1.4181116819381714,-15.004806518554688,5.501296043395996,-1.223746418952942,-0.1116715669631958,0.0,0.0,0.0,1.90361396506708,70,255,255,255
69,2.3632547419997536,1.8916277885437012,-1.4493488073349,-15.006134033203125,5.626407623291016,-1.1458427906036377,-0.12067756801843643,0.0,0.0,0.0,1.8696473427339368,70,255,255,255
70,2.3956877239997993,2.0651235580444336,-1.4766188859939575,-15.010910034179688,5.734555244445801,-1.0685068368911743,-0.13108348846435547,0.0,0.0,0.0,1.8296603784405607,70,255,255,255
71,2.434715409999626,2.242764949798584,-1.5020296573638916,-15.016204833984375,5.851833820343018,-0.9841777086257935,-0.13547468185424805,0.0,0.0,0.0,1.7881628691768916,70,255,255,255
72,2.4638339569996788,2.425069808959961,-1.5257893800735474,-15.021820068359375,5.986302375793457,-0.9178005456924438,-0.13321368396282196,0.0,0.0,0.0,1.7677498725794887,70,255,255,255
73,2.4964334899996174,2.6100471019744873,-1.5477066040039062,-15.0260009765625,6.034279823303223,-0.8601142168045044,-0.12420069426298141,0.0,0.0,0.0,1.7256267867757598,70,255,255,255
74,2.5350458660000186,2.8423068523406982,-1.5724483728408813,-15.02801513671875,6.126859188079834,-0.7895733714103699,-0.14925722777843475,0.0,0.0,0.0,1.6864623397850547,70,255,255,255
75,2.5667640069996196,3.031341791152954,-1.5909545421600342,-15.030624389648438,6.191746234893799,-0.7347396612167358,-0.1384962499141693,0.0,0.0,0.0,1.667356822124826,70,255,255,255
76,2.598290796999663,3.223576068878174,-1.6079580783843994,-15.033554077148438,6.269894599914551,-0.6705277562141418,-0.13687531650066376,0.0,0.0,0.0,1.629257240095989,70,255,255,255
77,2.6358827129997735,3.416779041290283,-1.6208276748657227,-15.035720825195312,6.311939239501953,-0.6297584772109985,-0.14485083520412445,0.0,0.0,0.0,1.5876711807260746,70,255,255,255
78,2.666943904999698,3.611907720565796,-1.6300667524337769,-15.037872314453125,6.416012763977051,-0.5872263312339783,-0.12681999802589417,0.0,0.0,0.0,1.5723521455037208,70,255,255,255
79,2.6996033030000035,3.81007981300354,-1.638755440711975,-15.039382934570312,6.463122844696045,-0.5479803681373596,-0.09533441811800003,0.0,0.0,0.0,1.5343407141069654,70,255,255,255
80,2.736497022999629,4.061855792999268,-1.6488384008407593,-15.040420532226562,6.551609992980957,-0.4969831705093384,-0.07064570486545563,0.0,0.0,0.0,1.4976355632248939,70,255,255,255
81,2.769034052999814,4.267024993896484,-1.6556411981582642,-15.039566040039062,6.6193342208862305,-0.46306219696998596,-0.03556990250945091,0.0,0.0,0.0,1.4812861509767883,70,255,255,255
82,2.801712999999836,4.475185394287109,-1.6619354486465454,-15.037872314453125,6.682408332824707,-0.44509604573249817,-0.015353885479271412,0.0,0.0,0.0,1.4508483502460547,70,255,255,255
83,2.8386351959998137,4.685547351837158,-1.668166995048523,-15.036056518554688,6.723199844360352,-0.4171333312988281,-0.014738095924258232,0.0,0.0,0.0,1.4356932325887952,70,255,255,255
84,2.8714401959996394,4.898221015930176,-1.6744098663330078,-15.034042358398438,6.801382541656494,-0.40709540247917175,-0.009275749325752258,0.0,0.0,0.0,1.4082132717227582,70,255,255,255
85,2.9036920049998116,5.113837718963623,-1.6818875074386597,-15.02667236328125,6.845196723937988,-0.3876987099647522,-0.035868655890226364,0.0,0.0,0.0,1.3826455936774524,70,255,255,255
86,2.9421839169999657,5.3854570388793945,-1.6912742853164673,-15.019088745117188,6.902932643890381,-0.3706819713115692,-0.03286083787679672,0.0,0.0,0.0,1.3711987946800739,70,255,255,255
87,2.9781759959996634,5.605293273925781,-1.6988885402679443,-15.013351440429688,6.966617107391357,-0.37323758006095886,-0.007251898758113384,0.0,0.0,0.0,1.351208042273503,70,255,255,255
88,3.006558152999787,5.827192306518555,-1.7076305150985718,-15.006988525390625,7.0439229011535645,-0.37240463495254517,-0.008190018124878407,0.0,0.0,0.0,1.3346571618889331,70,255,255,255
89,3.046325603999776,6.049347400665283,-1.7179715633392334,-14.99932861328125,7.0708327293396,-0.37386855483055115,-0.02286650240421295,0.0,0.0,0.0,1.3223463002758784,70,255,255,255
90,3.078902819999712,6.272824287414551,-1.7287157773971558,-14.992095947265625,7.0975661277771,-0.3834516406059265,0.019794315099716187,0.0,0.0,0.0,1.3176659278181186,70,255,255,255
91,3.111401735999607,6.497917652130127,-1.739935278892517,-14.984512329101562,7.1325459480285645,-0.3881615400314331,0.05052214115858078,0.0,0.0,0.0,1.3108576896493855,70,255,255,255
92,3.147352576999765,6.781853199005127,-1.7541183233261108,-14.970489501953125,7.215157985687256,-0.4280122220516205,0.06614723801612854,0.0,0.0,0.0,1.305292215603338,70,255,255,255
93,3.1811975819996405,7.011610984802246,-1.7662278413772583,-14.957351684570312,7.2537689208984375,-0.4421274662017822,0.07991539686918259,0.0,0.0,0.0,1.3038075032956187,70,255,255,255
94,3.2115501839998615,7.243091106414795,-1.7790460586547852,-14.944839477539062,7.319411277770996,-0.46749672293663025,0.11291047185659409,0.0,0.0,0.0,1.3046979312060867,70,255,255,255
95,3.250278865999917,7.477122783660889,-1.793057918548584,-14.932830810546875,7.368747711181641,-0.4872852861881256,0.09029879420995712,0.0,0.0,0.0,1.3098876332223242,70,255,255,255
96,3.287827324999853,7.714351654052734,-1.807868242263794,-14.91815185546875,7.410487651824951,-0.5099465847015381,0.12890136241912842,0.0,0.0,0.0,1.3149650829986148,70,255,255,255
97,3.3165996099996846,7.9539899826049805,-1.8236645460128784,-14.902755737304688,7.452149391174316,-0.526210367679596,0.12050020694732666,0.0,0.0,0.0,1.3208003352630873,70,255,255,255
98,3.359096266999586,8.254940032958984,-1.8441731929779053,-14.885665893554688,7.475448131561279,-0.5409855842590332,0.08823813498020172,0.0,0.0,0.0,1.3386882556729316,70,255,255,255
99,3.391391948999626,8.497106552124023,-1.8614695072174072,-14.873397827148438,7.536232948303223,-0.5628693103790283,0.08746601641178131,0.0,0.0,0.0,1.345394095297751,70,255,255,255
100,3.420374621999599,8.740222930908203,-1.8775854110717773,-14.86004638671875,7.541976451873779,-0.5643302798271179,0.06302959471940994,0.0,0.0,0.0,1.3528902279760517,70,255,255,255
101,3.457764653999675,8.984152793884277,-1.8942060470581055,-14.848419189453125,7.578174591064453,-0.5782132744789124,0.061165280640125275,0.0,0.0,0.0,1.3692063507105312,70,255,255,255
102,3.4994025739997596,9.229445457458496,-1.9115625619888306,-14.837905883789062,7.598470687866211,-0.5930045247077942,0.039211954921483994,0.0,0.0,0.0,1.3874491373356284,70,255,255,255
103,3.5244335269999283,9.475221633911133,-1.9300097227096558,-14.827835083007812,7.558935165405273,-0.6002912521362305,0.0242925938218832,0.0,0.0,0.0,1.4061987235161677,70,255,255,255
104,3.564758115999666,9.783882141113281,-1.9546583890914917,-14.813720703125,7.52628755569458,-0.6008980870246887,-0.016257787123322487,0.0,0.0,0.0,1.4266010674692102,70,255,255,255
105,3.606171835999703,10.029092788696289,-1.9746527671813965,-14.804031372070312,7.453298568725586,-0.604832112789154,-0.014616100117564201,0.0,0.0,0.0,1.437311502425182,70,255,255,255
106,3.632089361999988,10.271827697753906,-1.9946621656417847,-14.79583740234375,7.389498233795166,-0.608354389667511,-0.03739013522863388,0.0,0.0,0.0,1.4476805201294054,70,255,255,255
107,3.659251863999998,10.512639045715332,-2.015146493911743,-14.787353515625,7.32794189453125,-0.6067850589752197,-0.021937906742095947,0.0,0.0,0.0,1.4683961849846958,70,255,255,255
108,3.692056307999792,10.751495361328125,-2.03590726852417,-14.77874755859375,7.2844319343566895,-0.6106765270233154,-0.030290085822343826,0.0,0.0,0.0,1.488330744692266,70,255,255,255
109,3.725493639999968,10.988451957702637,-2.056846857070923,-14.771469116210938,7.2238922119140625,-0.623175859451294,-0.019698623567819595,0.0,0.0,0.0,1.5082286859348475,70,255,255,255
110,3.761766100999921,11.282108306884766,-2.0835049152374268,-14.763092041015625,7.148141860961914,-0.6327826380729675,-0.0241011381149292,0.0,0.0,0.0,1.5178675980262257,70,255,255,255
111,3.7947225029997753,11.514387130737305,-2.1066102981567383,-14.754547119140625,7.082213401794434,-0.6414079070091248,-0.018186114728450775,0.0,0.0,0.0,1.5384526348300478,70,255,255,255
112,3.8303104130000065,11.744386672973633,-2.1301698684692383,-14.74652099609375,6.997368335723877,-0.6413811445236206,-0.043722499161958694,0.0,0.0,0.0,1.5584504446135072,70,255,255,255
113,3.864569148999635,11.971298217773438,-2.153383731842041,-14.7401123046875,6.889199733734131,-0.6359208822250366,-0.08928272873163223,0.0,0.0,0.0,1.568003869233894,70,255,255,255
114,3.8971414389998245,12.194774627685547,-2.1764841079711914,-14.735198974609375,6.8039021492004395,-0.6366400122642517,-0.08291025459766388,0.0,0.0,0.0,1.5867926038824576,70,255,255,255
115,3.9312802739996187,12.416549682617188,-2.1987266540527344,-14.728530883789062,6.728769302368164,-0.6380009651184082,-0.08300953358411789,0.0,0.0,0.0,1.604419800821583,70,255,255,255
116,3.9667989009999474,12.689397811889648,-2.2262673377990723,-14.722564697265625,6.596952438354492,-0.6239463090896606,-0.13446927070617676,0.0,0.0,0.0,1.6145861519668514,70,255,255,255
117,3.9993169699996542,12.903704643249512,-2.248021125793457,-14.71978759765625,6.4878058433532715,-0.6256392002105713,-0.1683318316936493,0.0,0.0,0.0,1.6279838496207677,70,255,255,255
118,4.032735606999722,13.114365577697754,-2.2699973583221436,-14.71826171875,6.381689548492432,-0.616094708442688,-0.18189716339111328,0.0,0.0,0.0,1.6408587687527012,70,255,255,255
119,4.069737490999614,13.320806503295898,-2.2927448749542236,-14.71734619140625,6.259920120239258,-0.6112807989120483,-0.2142535001039505,0.0,0.0,0.0,1.6463343611119585,70,255,255,255
120,4.1020947489996615,13.522920608520508,-2.3150711059570312,-14.7181396484375,6.133957862854004,-0.595397412776947,-0.23972360789775848,0.0,0.0,0.0,1.6555985664379627,70,255,255,255
121,4.134860809999736,13.720767974853516,-2.3368122577667236,-14.720474243164062,6.001540660858154,-0.5863171219825745,-0.2472718060016632,0.0,0.0,0.0,1.6619953462182786,70,255,255,255
122,4.1727078529997925,13.960461616516113,-2.3623735904693604,-14.725387573242188,5.821331024169922,-0.5725030899047852,-0.25781330466270447,0.0,0.0,0.0,1.6645603698221885,70,255,255,255
123,4.204563513999801,14.14627742767334,-2.3816235065460205,-14.730972290039062,5.676629543304443,-0.5510042309761047,-0.26412472128868103,0.0,0.0,0.0,1.6680842645765812,70,255,255,255
124,4.237433061999582,14.32835865020752,-2.400268793106079,-14.736541748046875,5.580004692077637,-0.5351845622062683,-0.24296821653842926,0.0,0.0,0.0,1.6698749740935506,70,255,255,255
125,4.278747151999596,14.506970405578613,-2.418578624725342,-14.7425537109375,5.451939582824707,-0.529561460018158,-0.25797370076179504,0.0,0.0,0.0,1.6691790901007129,70,255,255,255
126,4.3096487279999565,14.682133674621582,-2.4356701374053955,-14.748062133789062,5.343515872955322,-0.5088818669319153,-0.2557574212551117,0.0,0.0,0.0,1.6683342022448853,70,255,255,255
127,4.340335589000006,14.85332202911377,-2.4522478580474854,-14.753662109375,5.200933933258057,-0.4998578727245331,-0.256490021944046,0.0,0.0,0.0,1.6654826225076829,70,255,255,255
128,4.383330324999861,15.059919357299805,-2.4726450443267822,-14.761550903320312,4.997807502746582,-0.4861498773097992,-0.28127238154411316,0.0,0.0,0.0,1.6612631100765614,70,255,255,255
129,4.414955176999683,15.219558715820312,-2.4888124465942383,-14.769088745117188,4.852664947509766,-0.4765210747718811,-0.3032911419868469,0.0,0.0,0.0,1.6585759805366713,70,255,255,255
130,4.447903957999642,15.370917320251465,-2.502969980239868,-14.77740478515625,4.7076921463012695,-0.4673762023448944,-0.29168596863746643,0.0,0.0,0.0,1.6559454431699456,70,255,255,255
131,4.4848172779998094,15.553681373596191,-2.5206658840179443,-14.788192749023438,4.516639232635498,-0.45940178632736206,-0.29945793747901917,0.0,0.0,0.0,1.6455342143624443,70,255,255,255
132,4.5167493189997,15.660439491271973,-2.5311737060546875,-14.794769287109375,4.429056167602539,-0.45086342096328735,-0.3126204311847687,0.0,0.0,0.0,1.6415831485692027,70,255,255,255
133,4.552505513999677,15.80002212524414,-2.5440666675567627,-14.8023681640625,4.296297073364258,-0.4438341557979584,-0.32463786005973816,0.0,0.0,0.0,1.6385452807137493,70,255,255,255
134,4.590089095999701,15.972257614135742,-2.555631160736084,-14.806991577148438,4.126534938812256,-0.4109988212585449,-0.3567032814025879,0.0,0.0,0.0,1.630598408020953,70,255,255,255
135,4.618286548000015,16.104822158813477,-2.564683437347412,-14.812454223632812,3.988986015319824,-0.3992099463939667,-0.3538496196269989,0.0,0.0,0.0,1.6262579880763417,70,255,255,255
136,4.648543820999748,16.232749938964844,-2.5737407207489014,-14.818069458007812,3.8508050441741943,-0.38401222229003906,-0.3273901343345642,0.0,0.0,0.0,1.6112911559081509,70,255,255,255
137,4.68727362799973,16.355127334594727,-2.58327579498291,-14.823516845703125,3.7350821495056152,-0.3687094748020172,-0.30205681920051575,0.0,0.0,0.0,1.6067102525171058,70,255,255,255
138,4.7196313239996925,16.472673416137695,-2.593374490737915,-14.829132080078125,3.635627508163452,-0.36285480856895447,-0.27644237875938416,0.0,0.0,0.0,1.5970629514682937,70,255,255,255
139,4.750327788999584,16.587261199951172,-2.603520393371582,-14.83453369140625,3.52763032913208,-0.3624318242073059,-0.26229730248451233,0.0,0.0,0.0,1.58723082703983,70,255,255,255
140,4.787404328999855,16.724815368652344,-2.61630916595459,-14.840255737304688,3.388988971710205,-0.35335952043533325,-0.2254735380411148,0.0,0.0,0.0,1.5777252061610103,70,255,255,255
141,4.82006376299978,16.83136558532715,-2.6253890991210938,-14.8411865234375,3.272291898727417,-0.3446066677570343,-0.22520875930786133,0.0,0.0,0.0,1.5734593547269213,70,255,255,255
142,4.852734404999865,16.934450149536133,-2.6338915824890137,-14.841964721679688,3.1630115509033203,-0.33032315969467163,-0.23389679193496704,0.0,0.0,0.0,1.564755212178161,70,255,255,255
143,4.891078528999969,17.034229278564453,-2.642261266708374,-14.843017578125,3.072589635848999,-0.3218183219432831,-0.22559045255184174,0.0,0.0,0.0,1.5607534131661533,70,255,255,255
144,4.923108297999988,17.131071090698242,-2.650557041168213,-14.844711303710938,2.946606397628784,-0.3103504478931427,-0.23654134571552277,0.0,0.0,0.0,1.5536873810039005,70,255,255,255
145,4.955035316999783,17.22223472595215,-2.6582422256469727,-14.844284057617188,2.799544334411621,-0.30871862173080444,-0.26050180196762085,0.0,0.0,0.0,1.5464893892096343,70,255,255,255
146,4.994375634999869,17.331178665161133,-2.6679112911224365,-14.844940185546875,2.670213460922241,-0.2976362705230713,-0.25608277320861816,0.0,0.0,0.0,1.5436436684268302,70,255,255,255
147,5.029232621999654,17.414627075195312,-2.675384998321533,-14.846023559570312,2.578594446182251,-0.2841455340385437,-0.23244675993919373,0.0,0.0,0.0,1.5378229303902986,70,255,255,255
148,5.0586615189999975,17.49513816833496,-2.6825754642486572,-14.847000122070312,2.49953556060791,-0.28119197487831116,-0.20945821702480316,0.0,0.0,0.0,1.5320581187366584,70,255,255,255
149,5.101511664999634,17.57145881652832,-2.6896138191223145,-14.84796142578125,2.38777494430542,-0.27172374725341797,-0.19282619655132294,0.0,0.0,0.0,1.5279374095819789,70,255,255,255
150,5.1397507589999805,17.644010543823242,-2.6966640949249268,-14.849014282226562,2.261979818344116,-0.27475428581237793,-0.1755419373512268,0.0,0.0,0.0,1.5255116693030801,70,255,255,255
151,5.172740089999934,17.730199813842773,-2.705563545227051,-14.850051879882812,2.1293869018554688,-0.26155561208724976,-0.16148902475833893,0.0,0.0,0.0,1.5225346546785352,70,255,255,255
152,5.207421936999708,17.796945571899414,-2.71341872215271,-14.848098754882812,2.0648298263549805,-0.25792884826660156,-0.1313752979040146,0.0,0.0,0.0,1.5204455379614226,70,255,255,255
153,5.233042748999651,17.86155891418457,-2.721376419067383,-14.845199584960938,1.9788267612457275,-0.2514583170413971,-0.1223493292927742,0.0,0.0,0.0,1.5204764306300673,70,255,255,255
154,5.266404505999617,17.92289924621582,-2.7295382022857666,-14.84375,1.8686927556991577,-0.2664320170879364,-0.15911553800106049,0.0,0.0,0.0,1.520107183344928,70,255,255,255
155,5.31274070299969,17.981237411499023,-2.737978219985962,-14.843582153320312,1.7738370895385742,-0.26495885848999023,-0.18673013150691986,0.0,0.0,0.0,1.5199057152084634,70,255,255,255
156,5.335154912999769,18.035776138305664,-2.7478933334350586,-14.841812133789062,1.7086215019226074,-0.27130815386772156,-0.1828811764717102,0.0,0.0,0.0,1.5203685726059193,70,255,255,255
157,5.372587392999776,18.087684631347656,-2.7583534717559814,-14.839950561523438,1.6124540567398071,-0.2709199786186218,-0.17986492812633514,0.0,0.0,0.0,1.5208346257966832,70,255,255,255
158,5.4090075439999055,18.149168014526367,-2.7715179920196533,-14.837966918945312,1.5170198678970337,-0.2748218774795532,-0.1761624962091446,0.0,0.0,0.0,1.5223684734265142,70,255,255,255
159,5.440728085999581,18.195466995239258,-2.7820241451263428,-14.837509155273438,1.4080528020858765,-0.27266496419906616,-0.18497906625270844,0.0,0.0,0.0,1.523086062182236,70,255,255,255
160,5.476108777999798,18.238367080688477,-2.7923367023468018,-14.834548950195312,1.3432681560516357,-0.27143728733062744,-0.1839536428451538,0.0,0.0,0.0,1.5255143324641702,70,255,255,255
161,5.515287288999843,18.278972625732422,-2.802520990371704,-14.832382202148438,1.2732475996017456,-0.2666151821613312,-0.1892351657152176,0.0,0.0,0.0,1.5274672284915254,70,255,255,255
162,5.5419309359999716,18.318370819091797,-2.8127682209014893,-14.831130981445312,1.2279448509216309,-0.272215873003006,-0.18746666610240936,0.0,0.0,0.0,1.5298140060441032,70,255,255,255
163,5.576941621999595,18.356061935424805,-2.822829008102417,-14.8287353515625,1.1618016958236694,-0.27963995933532715,-0.17045117914676666,0.0,0.0,0.0,1.5331076705222588,70,255,255,255
164,5.613231718999941,18.40167999267578,-2.8340091705322266,-14.820220947265625,1.0905789136886597,-0.2798525393009186,-0.15649321675300598,0.0,0.0,0.0,1.536494279322458,70,255,255,255
165,5.6408087810000325,18.435882568359375,-2.843079090118408,-14.814422607421875,1.0427957773208618,-0.28278473019599915,-0.14473971724510193,0.0,0.0,0.0,1.5377101455181337,70,255,255,255
166,5.6740167660000225,18.469219207763672,-2.8522372245788574,-14.809890747070312,1.0079489946365356,-0.28318530321121216,-0.1456611156463623,0.0,0.0,0.0,1.5402719733287353,70,255,255,255
167,5.713520089999747,18.502079010009766,-2.8624155521392822,-14.803375244140625,0.9419381618499756,-0.27300816774368286,-0.1608237326145172,0.0,0.0,0.0,1.5437450017063077,70,255,255,255
168,5.742835831999855,18.534616470336914,-2.873279094696045,-14.795974731445312,0.9031368494033813,-0.27208074927330017,-0.1893109381198883,0.0,0.0,0.0,1.5450034784794247,70,255,255,255
169,5.777168371999778,18.565736770629883,-2.8838369846343994,-14.7906494140625,0.8619322180747986,-0.2688899040222168,-0.1959017664194107,0.0,0.0,0.0,1.5485671874921143,70,255,255,255
170,5.814121748999696,18.60286521911621,-2.8969314098358154,-14.785385131835938,0.8209146857261658,-0.26796039938926697,-0.1976272165775299,0.0,0.0,0.0,1.550174937842195,70,255,255,255
171,5.847793326999636,18.629722595214844,-2.9070160388946533,-14.78076171875,0.7763703465461731,-0.2654203176498413,-0.16633661091327667,0.0,0.0,0.0,1.554159426307117,70,255,255,255
172,5.881990907999807,18.65434455871582,-2.9169323444366455,-14.776260375976562,0.727932333946228,-0.2632281482219696,-0.15752919018268585,0.0,0.0,0.0,1.5568347047801563,70,255,255,255
173,5.9196262899999965,18.67795181274414,-2.9266557693481445,-14.772674560546875,0.6821349263191223,-0.2585335969924927,-0.17878228425979614,0.0,0.0,0.0,1.5595432727668213,70,255,255,255
174,5.954645071999948,18.700008392333984,-2.936077833175659,-14.769790649414062,0.6314988732337952,-0.2503851056098938,-0.14714200794696808,0.0,0.0,0.0,1.5617807275566513,70,255,255,255
175,5.9856879809999555,18.72014045715332,-2.947810649871826,-14.767593383789062,0.5670274496078491,-0.25652778148651123,-0.19245746731758118,0.0,0.0,0.0,1.5654674746117025,70,255,255,255
176,6.025020492999829,18.744369506835938,-2.962080955505371,-14.766845703125,0.581787109375,-0.2466708868741989,-0.20114819705486298,0.0,0.0,0.0,1.5681016072459,70,255,255,255
177,6.053783364999617,18.76353645324707,-2.972870111465454,-14.76715087890625,0.5445848107337952,-0.2364649772644043,-0.19224949181079865,0.0,0.0,0.0,1.5694771299489259,70,255,255,255
178,6.08948838599963,18.781803131103516,-2.983205795288086,-14.766754150390625,0.5248551368713379,-0.23494292795658112,-0.20479662716388702,0.0,0.0,0.0,1.5724046097771955,70,255,255,255
179,6.129050989999996,18.79907989501953,-2.99285626411438,-14.763671875,0.48534566164016724,-0.23626914620399475,-0.21083159744739532,0.0,0.0,0.0,1.5732030254720013,70,255,255,255
180,6.169167243999709,18.815650939941406,-3.002265453338623,-14.761688232421875,0.46963152289390564,-0.22522710263729095,-0.21193844079971313,0.0,0.0,0.0,1.5753074553653819,70,255,255,255
181,6.19104480399983,18.831209182739258,-3.0112392902374268,-14.760879516601562,0.4175715148448944,-0.21774472296237946,-0.2233293354511261,0.0,0.0,0.0,1.5761815048351457,70,255,255,255
182,6.232237011999587,18.847091674804688,-3.0203604698181152,-14.760223388671875,0.3581896722316742,-0.2023446261882782,-0.23513543605804443,0.0,0.0,0.0,1.5777394540728422,70,255,255,255
183,6.262709090999579,18.856983184814453,-3.0265305042266846,-14.760635375976562,0.32549214363098145,-0.18874581158161163,-0.26393789052963257,0.0,0.0,0.0,1.5784550454577464,70,255,255,255
184,6.298413865999919,18.86555290222168,-3.032357931137085,-14.762161254882812,0.25289788842201233,-0.18451116979122162,-0.25948911905288696,0.0,0.0,0.0,1.5798533381880926,70,255,255,255
185,6.334732324000015,18.871932983398438,-3.038057804107666,-14.7635498046875,0.20926976203918457,-0.1716742068529129,-0.2258245199918747,0.0,0.0,0.0,1.5808854462685529,70,255,255,255
186,6.365557678999721,18.877229690551758,-3.0415964126586914,-14.761734008789062,0.17290186882019043,-0.16063259541988373,-0.22752171754837036,0.0,0.0,0.0,1.5811203370766977,70,255,255,255
187,6.403815161999773,18.88140106201172,-3.0441949367523193,-14.760208129882812,0.14710161089897156,-0.14038926362991333,-0.24907110631465912,0.0,0.0,0.0,1.5810612149004981,70,255,255,255
188,6.4358133619998625,18.88532257080078,-3.046924591064453,-14.759353637695312,0.10896486788988113,-0.11550893634557724,-0.23551030457019806,0.0,0.0,0.0,1.5812439077512774,70,255,255,255
189,6.464152978999664,18.887508392333984,-3.0485901832580566,-14.759292602539062,0.07761210948228836,-0.09433548152446747,-0.23519393801689148,0.0,0.0,0.0,1.581634859799301,70,255,255,255
190,6.5010742719996415,18.893808364868164,-3.0495619773864746,-14.756362915039062,0.06837549805641174,-0.08514664322137833,-0.23268811404705048,0.0,0.0,0.0,1.5815055633283777,70,255,255,255
191,6.54015361699976,18.898889541625977,-3.0504026412963867,-14.754562377929688,0.020710207521915436,-0.06767565757036209,-0.2339017242193222,0.0,0.0,0.0,1.5813445752404824,70,255,255,255
192,6.568825224999728,18.902517318725586,-3.0510284900665283,-14.75396728515625,0.0017050238093361259,-0.06587256491184235,-0.24548190832138062,0.0,0.0,0.0,1.580807282490559,70,255,255,255
193,6.604446891999942,18.90477180480957,-3.051767587661743,-14.753448486328125,-0.017637750133872032,-0.04813092574477196,-0.2643750011920929,0.0,0.0,0.0,1.5804351057282204,70,255,255,255
194,6.633914722999634,18.904359817504883,-3.0535569190979004,-14.749282836914062,-0.06143375486135483,-0.041981350630521774,-0.25700071454048157,0.0,0.0,0.0,1.5780152244037198,70,255,255,255
195,6.6658554559999175,18.902265548706055,-3.0548558235168457,-14.74786376953125,-0.11871378123760223,-0.038445763289928436,-0.28628090023994446,0.0,0.0,0.0,1.5779450501089962,70,255,255,255
196,6.69870504499977,18.89875030517578,-3.056238889694214,-14.747634887695312,-0.14103081822395325,-0.04719287157058716,-0.28342458605766296,0.0,0.0,0.0,1.5774595558422748,70,255,255,255
197,6.739363793999928,18.893266677856445,-3.058459997177124,-14.74554443359375,-0.14069786667823792,-0.04438689351081848,-0.2969937324523926,0.0,0.0,0.0,1.5767209281139414,70,255,255,255
198,6.767842774999735,18.8859806060791,-3.0613882541656494,-14.741775512695312,-0.15664564073085785,-0.046142879873514175,-0.28769180178642273,0.0,0.0,0.0,1.576036495713791,70,255,255,255
199,6.800813189999644,18.878549575805664,-3.0642640590667725,-14.73919677734375,-0.18421180546283722,-0.04537399858236313,-0.2931180000305176,0.0,0.0,0.0,1.5748468616548525,70,255,255,255
200,6.840944275999846,18.868480682373047,-3.0677387714385986,-14.73773193359375,-0.20001375675201416,-0.04784196615219116,-0.2964814305305481,0.0,0.0,0.0,1.5742238151178285,70,255,255,255
201,6.8730860639998355,18.858747482299805,-3.071636915206909,-14.736190795898438,-0.24600982666015625,-0.050519924610853195,-0.3272848427295685,0.0,0.0,0.0,1.5738946484070948,70,255,255,255
202,6.909438514999692,18.84803581237793,-3.0759692192077637,-14.735748291015625,-0.2605234980583191,-0.05635818466544151,-0.3327981233596802,0.0,0.0,0.0,1.5734437752345443,70,255,255,255
203,6.953755493999779,18.83731460571289,-3.0801663398742676,-14.736282348632812,-0.2710125744342804,-0.05026032403111458,-0.33118730783462524,0.0,0.0,0.0,1.5719550681851902,70,255,255,255
204,6.977128868999898,18.826204299926758,-3.083894729614258,-14.737960815429688,-0.2763574719429016,-0.039551522582769394,-0.3314049243927002,0.0,0.0,0.0,1.5712878131740706,70,255,255,255
205,7.010032731999672,18.815752029418945,-3.087571620941162,-14.735076904296875,-0.28816935420036316,-0.04143085703253746,-0.3319433033466339,0.0,0.0,0.0,1.5706878029804758,70,255,255,255
206,7.047627410999667,18.802949905395508,-3.0919382572174072,-14.733230590820312,-0.2690778970718384,-0.03500243276357651,-0.33677685260772705,0.0,0.0,0.0,1.5704154947590152,70,255,255,255
207,7.079158290999658,18.793718338012695,-3.0951151847839355,-14.73382568359375,-0.2553326487541199,-0.03580735623836517,-0.3491339385509491,0.0,0.0,0.0,1.5696731386051557,70,255,255,255
208,7.115275198999825,18.784440994262695,-3.099226713180542,-14.73455810546875,-0.287686824798584,-0.04023047909140587,-0.3578953742980957,0.0,0.0,0.0,1.568815334418041,70,255,255,255
209,7.151036923999982,18.77301788330078,-3.1073296070098877,-14.731979370117188,-0.30976057052612305,-0.03653176501393318,-0.3600822985172272,0.0,0.0,0.0,1.5676930783346819,70,255,255,255
210,7.184421812999972,18.765750885009766,-3.111842155456543,-14.7313232421875,-0.3199705183506012,-0.029838494956493378,-0.3426147997379303,0.0,0.0,0.0,1.567453526994629,70,255,255,255
211,7.220238477999828,18.75623321533203,-3.117286205291748,-14.730743408203125,-0.3037848174571991,-0.02448999509215355,-0.3000895380973816,0.0,0.0,0.0,1.5667729561780595,70,255,255,255
212,7.248313046000021,18.7432861328125,-3.124706506729126,-14.727569580078125,-0.28049084544181824,-0.02813393622636795,-0.2858632504940033,0.0,0.0,0.0,1.5659781357507252,70,255,255,255
213,7.280517314000008,18.732227325439453,-3.1307947635650635,-14.724990844726562,-0.2811896800994873,-0.02646585740149021,-0.2903752028942108,0.0,0.0,0.0,1.5656247342740717,70,255,255,255
214,7.317313835999812,18.721303939819336,-3.1366145610809326,-14.723556518554688,-0.301023930311203,-0.03027624823153019,-0.2901923954486847,0.0,0.0,0.0,1.565009410904209,70,255,255,255
215,7.356113714999992,18.71026039123535,-3.141878604888916,-14.723007202148438,-0.3013777732849121,-0.024208109825849533,-0.2804638147354126,0.0,0.0,0.0,1.564160794622855,70,255,255,255
216,7.3921194849999665,18.698755264282227,-3.1455938816070557,-14.719406127929688,-0.3191194534301758,-0.024464856833219528,-0.26344114542007446,0.0,0.0,0.0,1.563604327113083,70,255,255,255
217,7.418577831999755,18.687021255493164,-3.148810386657715,-14.7154541015625,-0.322566419839859,-0.02497449330985546,-0.25072601437568665,0.0,0.0,0.0,1.5633257604630608,70,255,255,255
218,7.4663907749995815,18.672475814819336,-3.15244722366333,-14.712631225585938,-0.3491170406341553,-0.018816636875271797,-0.2588415741920471,0.0,0.0,0.0,1.5633199015086627,70,255,255,255
219,7.488378023999758,18.659412384033203,-3.154935598373413,-14.71148681640625,-0.38699546456336975,-0.014882688410580158,-0.27291741967201233,0.0,0.0,0.0,1.5635057901527503,70,255,255,255
220,7.521076735999941,18.64491844177246,-3.156691312789917,-14.708053588867188,-0.37552985548973083,-0.00931541621685028,-0.2719157934188843,0.0,0.0,0.0,1.563534285976414,70,255,255,255
221,7.560805031999735,18.631366729736328,-3.1581852436065674,-14.7059326171875,-0.35763683915138245,-0.0035386744420975447,-0.28059712052345276,0.0,0.0,0.0,1.563922708021402,70,255,255,255
222,7.596093458999803,18.618152618408203,-3.1596333980560303,-14.70556640625,-0.36155325174331665,-0.015259011648595333,-0.28993821144104004,0.0,0.0,0.0,1.5642678536986763,70,255,255,255
223,7.623791783999877,18.605567932128906,-3.1616575717926025,-14.705291748046875,-0.35293683409690857,-0.020351765677332878,-0.3035512864589691,0.0,0.0,0.0,1.5643629285495921,70,255,255,255
224,7.657499317999736,18.591169357299805,-3.1654469966888428,-14.701522827148438,-0.3502163887023926,-0.02879583090543747,-0.3140195608139038,0.0,0.0,0.0,1.564678113664603,70,255,255,255
225,7.69142981099958,18.579187393188477,-3.1683714389801025,-14.700119018554688,-0.3746216595172882,-0.027595270425081253,-0.3141281008720398,0.0,0.0,0.0,1.5656479037755555,70,255,255,255
226,7.7232576139999765,18.56715202331543,-3.171161651611328,-14.700332641601562,-0.38032418489456177,-0.028806494548916817,-0.32355543971061707,0.0,0.0,0.0,1.5660947822064708,70,255,255,255
227,7.760908710999956,18.556503295898438,-3.1751506328582764,-14.69940185546875,-0.3755408823490143,-0.022933658212423325,-0.30797529220581055,0.0,0.0,0.0,1.5659987752491733,70,255,255,255
228,7.797632704999614,18.547100067138672,-3.180180072784424,-14.698593139648438,-0.38356220722198486,-0.019852623343467712,-0.3259003460407257,0.0,0.0,0.0,1.5659689478449645,70,255,255,255
229,7.837761204999879,18.53731346130371,-3.184598445892334,-14.698883056640625,-0.3651678264141083,-0.012654704041779041,-0.31693679094314575,0.0,0.0,0.0,1.5663810720236542,70,255,255,255
230,7.868499695999617,18.52597427368164,-3.189589738845825,-14.701004028320312,-0.3594698905944824,-0.01059874426573515,-0.33110401034355164,0.0,0.0,0.0,1.5671672371774457,70,255,255,255
231,7.903358991999994,18.517833709716797,-3.195983648300171,-14.700729370117188,-0.34006255865097046,-0.012906763702630997,-0.3087189495563507,0.0,0.0,0.0,1.5671896077306022,70,255,255,255
232,7.933718449000025,18.51055335998535,-3.202763080596924,-14.70068359375,-0.34656888246536255,-0.0093715013936162,-0.3051329255104065,0.0,0.0,0.0,1.567566578182903,70,255,255,255
233,7.970131332999699,18.50274658203125,-3.2090015411376953,-14.70184326171875,-0.34078577160835266,-0.00928911566734314,-0.3389839231967926,0.0,0.0,0.0,1.5675505992163625,70,255,255,255
234,8.003180248999797,18.494768142700195,-3.2144577503204346,-14.704818725585938,-0.3421773612499237,0.0025101699866354465,-0.34516072273254395,0.0,0.0,0.0,1.568409468667913,70,255,255,255
235,8.036080987999867,18.483657836914062,-3.218878746032715,-14.704330444335938,-0.36917755007743835,0.00021469383500516415,-0.3562995493412018,0.0,0.0,0.0,1.5685490183090331,70,255,255,255
236,8.074858019999738,18.46755027770996,-3.223785400390625,-14.705307006835938,-0.44446486234664917,0.011065703816711903,-0.34827786684036255,0.0,0.0,0.0,1.5683265111999571,70,255,255,255
237,8.104382943000019,18.4534969329834,-3.2272744178771973,-14.707778930664062,-0.43826794624328613,0.007173594553023577,-0.36807337403297424,0.0,0.0,0.0,1.568541028825763,70,255,255,255
238,8.136070647999986,18.439712524414062,-3.231062650680542,-14.710464477539062,-0.44669216871261597,0.01506490632891655,-0.3492017984390259,0.0,0.0,0.0,1.5692402417699634,70,255,255,255
239,8.175273044999813,18.425825119018555,-3.2362935543060303,-14.711212158203125,-0.45025479793548584,0.019156863912940025,-0.337111234664917,0.0,0.0,0.0,1.5692162733201527,70,255,255,255
240,8.20610588999989,18.412378311157227,-3.240675926208496,-14.713104248046875,-0.4314185082912445,0.02952088974416256,-0.354530930519104,0.0,0.0,0.0,1.5695309258029455,70,255,255,255
241,8.237952617999781,18.399036407470703,-3.2444796562194824,-14.716384887695312,-0.42465952038764954,0.030610302463173866,-0.3575824201107025,0.0,0.0,0.0,1.5697144176020519,70,255,255,255
242,8.280084521999925,18.383563995361328,-3.2486634254455566,-14.718673706054688,-0.4142632782459259,0.022797951474785805,-0.38386330008506775,0.0,0.0,0.0,1.5694069556542023,70,255,255,255
243,8.309710947999974,18.371665954589844,-3.2516257762908936,-14.719955444335938,-0.40883225202560425,0.025389432907104492,-0.3588634431362152,0.0,0.0,0.0,1.569925339960386,70,255,255,255
244,8.342941351999798,18.359251022338867,-3.2541537284851074,-14.721466064453125,-0.42423123121261597,0.03006751649081707,-0.31336289644241333,0.0,0.0,0.0,1.5704015131632922,70,255,255,255
245,8.383847413999774,18.346500396728516,-3.2561614513397217,-14.723068237304688,-0.45065435767173767,0.03615435212850571,-0.29130491614341736,0.0,0.0,0.0,1.5701174870330354,70,255,255,255
246,8.411319211999853,18.331581115722656,-3.258700370788574,-14.722030639648438,-0.44821617007255554,0.04505612328648567,-0.26827508211135864,0.0,0.0,0.0,1.5702511777197574,70,255,255,255
247,8.444159959999979,18.316730499267578,-3.2607054710388184,-14.720565795898438,-0.45020416378974915,0.06016436591744423,-0.24666021764278412,0.0,0.0,0.0,1.5704226852939585,70,255,255,255
248,8.481568179999613,18.298627853393555,-3.262420415878296,-14.71942138671875,-0.40794095396995544,0.06677497178316116,-0.22955675423145294,0.0,0.0,0.0,1.5708385378981744,70,255,255,255
249,8.513657942999998,18.284801483154297,-3.263261556625366,-14.719253540039062,-0.4414101839065552,0.06508998572826385,-0.21676959097385406,0.0,0.0,0.0,1.5710473297276366,70,255,255,255
250,8.547311525999703,18.269447326660156,-3.2675113677978516,-14.712738037109375,-0.4488358497619629,0.0626693144440651,-0.19849416613578796,0.0,0.0,0.0,1.571415245432231,70,255,255,255
251,8.583803932999672,18.25376319885254,-3.271230459213257,-14.707443237304688,-0.4644646644592285,0.058967165648937225,-0.2147357314825058,0.0,0.0,0.0,1.571852536483222,70,255,255,255
252,8.616500117999749,18.237743377685547,-3.2743406295776367,-14.703704833984375,-0.47119149565696716,0.06408718228340149,-0.2069602906703949,0.0,0.0,0.0,1.5723051407104809,70,255,255,255
253,8.648841092999646,18.22178840637207,-3.2768216133117676,-14.700180053710938,-0.46195074915885925,0.06883120536804199,-0.1972080022096634,0.0,0.0,0.0,1.5722936891177937,70,255,255,255
254,8.690350051999758,18.20149040222168,-3.279003143310547,-14.693572998046875,-0.4491962194442749,0.07391916215419769,-0.1931532621383667,0.0,0.0,0.0,1.5718115238024348,70,255,255,255
255,8.718853338999907,18.185890197753906,-3.280097007751465,-14.68975830078125,-0.4262673556804657,0.08385033905506134,-0.2019970566034317,0.0,0.0,0.0,1.5717827616626618,70,255,255,255
256,8.751368114999877,18.170169830322266,-3.280559539794922,-14.687240600585938,-0.4399915337562561,0.09335760027170181,-0.19425305724143982,0.0,0.0,0.0,1.5714856860430637,70,255,255,255
257,8.78798664299984,18.15540885925293,-3.281468391418457,-14.6826171875,-0.41611769795417786,0.10391171276569366,-0.20186637341976166,0.0,0.0,0.0,1.5711823519949035,70,255,255,255
258,8.820566335999956,18.141155242919922,-3.2826731204986572,-14.677093505859375,-0.43733564019203186,0.10574210435152054,-0.21813789010047913,0.0,0.0,0.0,1.5711775583049414,70,255,255,255
259,8.856294772999718,18.12541961669922,-3.2834091186523438,-14.674026489257812,-0.48178398609161377,0.10992196202278137,-0.24457497894763947,0.0,0.0,0.0,1.5710237607519895,70,255,255,255
260,8.897253009999986,18.105403900146484,-3.283658504486084,-14.672988891601562,-0.47772735357284546,0.10904011130332947,-0.28988075256347656,0.0,0.0,0.0,1.5711278903506114,70,255,255,255
261,8.923669152000002,18.091876983642578,-3.2858495712280273,-14.669891357421875,-0.4578453302383423,0.11771820485591888,-0.2958715856075287,0.0,0.0,0.0,1.5710040533599228,70,255,255,255
262,8.956427154999801,18.078861236572266,-3.288280487060547,-14.667007446289062,-0.4355584681034088,0.11122570186853409,-0.2907734811306,0.0,0.0,0.0,1.5708502558069708,70,255,255,255
263,8.995034146999842,18.066619873046875,-3.290466070175171,-14.665283203125,-0.4088228642940521,0.10415519028902054,-0.2856547236442566,0.0,0.0,0.0,1.5707297477676445,70,255,255,255
264,9.032076897000024,18.0548038482666,-3.291919469833374,-14.664703369140625,-0.3609605133533478,0.11723262816667557,-0.2991235852241516,0.0,0.0,0.0,1.570517893302929,70,255,255,255
265,9.061029655999846,18.04283332824707,-3.2935831546783447,-14.664276123046875,-0.35620105266571045,0.1171942800283432,-0.329214870929718,0.0,0.0,0.0,1.5702671566862978,70,255,255,255
266,9.103158269999767,18.02819061279297,-3.2947371006011963,-14.66571044921875,-0.35110434889793396,0.1239597275853157,-0.3242765963077545,0.0,0.0,0.0,1.5694136135569274,70,255,255,255
267,9.13117354499991,18.016550064086914,-3.295067310333252,-14.667617797851562,-0.35072335600852966,0.12873341143131256,-0.31850436329841614,0.0,0.0,0.0,1.569588183766382,70,255,255,255
268,9.16134364599975,18.004499435424805,-3.294766426086426,-14.669387817382812,-0.35426002740859985,0.13281510770320892,-0.3010689616203308,0.0,0.0,0.0,1.569434119897321,70,255,255,255
269,9.19792992199973,17.990442276000977,-3.293783664703369,-14.669342041015625,-0.33758193254470825,0.1312379539012909,-0.2932839095592499,0.0,0.0,0.0,1.5694255977818328,70,255,255,255
270,9.230195099999946,17.977901458740234,-3.292548179626465,-14.670547485351562,-0.3005554676055908,0.1329226791858673,-0.3034604489803314,0.0,0.0,0.0,1.5695592884685547,70,255,255,255
271,9.262774377999904,17.96605682373047,-3.2909748554229736,-14.67315673828125,-0.292237251996994,0.131643608212471,-0.30737850069999695,0.0,0.0,0.0,1.5695005657665186,70,255,255,255
272,9.299363156999789,17.950082778930664,-3.290271282196045,-14.676177978515625,-0.29233813285827637,0.1309383362531662,-0.32333138585090637,0.0,0.0,0.0,1.5697258691947393,70,255,255,255
273,9.331944169999588,17.937170028686523,-3.290170907974243,-14.679061889648438,-0.3094591498374939,0.1349658966064453,-0.3203691840171814,0.0,0.0,0.0,1.5695797948089485,70,255,255,255
274,9.36463832499976,17.92378044128418,-3.289585590362549,-14.682723999023438,-0.3138415813446045,0.1364312320947647,-0.3192133605480194,0.0,0.0,0.0,1.5697153497084335,70,255,255,255
275,9.401291141999991,17.91064453125,-3.288536310195923,-14.687301635742188,-0.3292737305164337,0.14015106856822968,-0.3259149193763733,0.0,0.0,0.0,1.5698999067719759,70,255,255,255
276,9.433751706999828,17.89554786682129,-3.289595603942871,-14.690139770507812,-0.324998676776886,0.14298319816589355,-0.31228727102279663,0.0,0.0,0.0,1.56976994451078,70,255,255,255
277,9.466378500999781,17.880992889404297,-3.2908053398132324,-14.692672729492188,-0.30748116970062256,0.14187060296535492,-0.3089737296104431,0.0,0.0,0.0,1.5691032221318788,70,255,255,255
278,9.503051563999634,17.864194869995117,-3.291633129119873,-14.697677612304688,-0.2896463871002197,0.13799013197422028,-0.336454302072525,0.0,0.0,0.0,1.568691630585407,70,255,255,255
279,9.535543909999888,17.851367950439453,-3.2917964458465576,-14.70263671875,-0.2735635042190552,0.13840597867965698,-0.3201795518398285,0.0,0.0,0.0,1.5684195886800554,70,255,255,255
280,9.568094962000032,17.83721160888672,-3.2931010723114014,-14.703582763671875,-0.2518829107284546,0.13678184151649475,-0.30566126108169556,0.0,0.0,0.0,1.5678623222219563,70,255,255,255
281,9.604506742000012,17.823904037475586,-3.293872833251953,-14.70556640625,-0.24247394502162933,0.1359197050333023,-0.31620368361473083,0.0,0.0,0.0,1.567799604778285,70,255,255,255
282,9.637160255999788,17.811729431152344,-3.2941513061523438,-14.708908081054688,-0.21916185319423676,0.13667044043540955,-0.337857186794281,0.0,0.0,0.0,1.5684929587680871,70,255,255,255
283,9.66946267000003,17.7998104095459,-3.2942230701446533,-14.713150024414062,-0.19468437135219574,0.13665014505386353,-0.327221155166626,0.0,0.0,0.0,1.5680864272276864,70,255,255,255
284,9.713232473999597,17.784685134887695,-3.294250726699829,-14.717819213867188,-0.17413653433322906,0.14089664816856384,-0.29741835594177246,0.0,0.0,0.0,1.5678107900548632,70,255,255,255
285,9.74430197699985,17.7728328704834,-3.293691873550415,-14.721466064453125,-0.17016614973545074,0.14845840632915497,-0.2811126708984375,0.0,0.0,0.0,1.5678483406262333,70,255,255,255
286,9.772213139999621,17.761999130249023,-3.292673349380493,-14.725860595703125,-0.14474575221538544,0.15076178312301636,-0.28431716561317444,0.0,0.0,0.0,1.567318771043471,70,255,255,255
287,9.808614383999611,17.751401901245117,-3.2921597957611084,-14.728134155273438,-0.14242272078990936,0.15388047695159912,-0.2749168872833252,0.0,0.0,0.0,1.5671629761197015,70,255,255,255
288,9.841255751999597,17.740385055541992,-3.292372226715088,-14.728439331054688,-0.15185730159282684,0.14884039759635925,-0.28472232818603516,0.0,0.0,0.0,1.567016502259747,70,255,255,255
289,9.8757624079999,17.729219436645508,-3.2921698093414307,-14.73016357421875,-0.17514309287071228,0.14937616884708405,-0.2788895070552826,0.0,0.0,0.0,1.5669222263571583,70,255,255,255
290,9.910937275999913,17.715015411376953,-3.2912228107452393,-14.734161376953125,-0.19284212589263916,0.14620764553546906,-0.3022150695323944,0.0,0.0,0.0,1.566522086403374,70,255,255,255
291,9.944261918999928,17.700706481933594,-3.2924437522888184,-14.735504150390625,-0.20057307183742523,0.1414511352777481,-0.3160921037197113,0.0,0.0,0.0,1.5672175709220482,70,255,255,255
292,9.979731942999933,17.686573028564453,-3.294057607650757,-14.736618041992188,-0.16715826094150543,0.1352316290140152,-0.2920723259449005,0.0,0.0,0.0,1.5672370119980057,70,255,255,255
293,10.013298206999934,17.67413330078125,-3.2951698303222656,-14.737777709960938,-0.1688225269317627,0.13276366889476776,-0.2663513123989105,0.0,0.0,0.0,1.5676101208667257,70,255,255,255
294,10.045614493999892,17.661930084228516,-3.295741081237793,-14.73944091796875,-0.16871251165866852,0.13589094579219818,-0.2710859775543213,0.0,0.0,0.0,1.5681607294220996,70,255,255,255
295,10.078187824999986,17.645736694335938,-3.299389600753784,-14.7412109375,-0.15673957765102386,0.12937317788600922,-0.23821452260017395,0.0,0.0,0.0,1.568844629190032,70,255,255,255
296,10.11467651799967,17.6283016204834,-3.303079843521118,-14.744277954101562,-0.13259057700634003,0.12317903339862823,-0.26159486174583435,0.0,0.0,0.0,1.5697671481916355,70,255,255,255
297,10.147120092000023,17.61568832397461,-3.3055272102355957,-14.748397827148438,-0.1187530979514122,0.11688368767499924,-0.2887001931667328,0.0,0.0,0.0,1.5703321378168957,70,255,255,255
298,10.179848244999903,17.603744506835938,-3.3076980113983154,-14.753280639648438,-0.11944029480218887,0.11180185526609421,-0.29822397232055664,0.0,0.0,0.0,1.57094573013205,70,255,255,255
299,10.21652128400001,17.592432022094727,-3.309781789779663,-14.757827758789062,-0.11356817930936813,0.11293765157461166,-0.286254346370697,0.0,0.0,0.0,1.5713449379794528,70,255,255,255
300,10.249022291999609,17.581703186035156,-3.3112668991088867,-14.762313842773438,-0.09842158108949661,0.12152928858995438,-0.2718307077884674,0.0,0.0,0.0,1.571483688672246,70,255,255,255
301,10.281610093999916,17.57265853881836,-3.3120248317718506,-14.767868041992188,-0.07581943273544312,0.1240987479686737,-0.29384565353393555,0.0,0.0,0.0,1.5717773021824273,70,255,255,255
302,10.318386515999919,17.560256958007812,-3.312281370162964,-14.775146484375,-0.07604824751615524,0.13302020728588104,-0.2878337502479553,0.0,0.0,0.0,1.5715065918576208,70,255,255,255
303,10.350832246999744,17.550376892089844,-3.3117012977600098,-14.781341552734375,-0.065345399081707,0.14779981970787048,-0.29698070883750916,0.0,0.0,0.0,1.571495806055206,70,255,255,255
304,10.383531923999726,17.541351318359375,-3.310110569000244,-14.788528442382812,-0.048787619918584824,0.1680886447429657,-0.31203320622444153,0.0,0.0,0.0,1.5713240321648958,70,255,255,255
305,10.420027429999664,17.533899307250977,-3.3075265884399414,-14.796554565429688,-0.035001300275325775,0.19138620793819427,-0.3259856104850769,0.0,0.0,0.0,1.5713888801374392,70,255,255,255
306,10.452511683000012,17.52390480041504,-3.307111978530884,-14.803573608398438,-0.03628021478652954,0.21011272072792053,-0.3255159258842468,0.0,0.0,0.0,1.5715675782465834,70,255,255,255
307,10.48516435900001,17.514497756958008,-3.306561231613159,-14.809921264648438,-0.007071251980960369,0.22626231610774994,-0.3100413978099823,0.0,0.0,0.0,1.5709627743630266,70,255,255,255
308,10.521864335999908,17.504337310791016,-3.3041131496429443,-14.818084716796875,0.0005614866968244314,0.25818315148353577,-0.3076496124267578,0.0,0.0,0.0,1.571166639344472,70,255,255,255
309,10.554163806999895,17.497413635253906,-3.300724744796753,-14.825149536132812,0.009256668388843536,0.27196335792541504,-0.31009185314178467,0.0,0.0,0.0,1.5713240321648958,70,255,255,255
310,10.586844221999854,17.4857234954834,-3.297287940979004,-14.831405639648438,0.01642749086022377,0.30093246698379517,-0.32148659229278564,0.0,0.0,0.0,1.571158916177311,70,255,255,255
311,10.623670908999884,17.475210189819336,-3.292559862136841,-14.837936401367188,0.033216748386621475,0.3260754346847534,-0.30284884572029114,0.0,0.0,0.0,1.570823091563852,70,255,255,255
312,10.6559047009996,17.466190338134766,-3.2863855361938477,-14.845001220703125,0.02989671193063259,0.3552171587944031,-0.31988513469696045,0.0,0.0,0.0,1.5699431831396897,70,255,255,255
313,10.688610922999942,17.456674575805664,-3.2790768146514893,-14.8515625,0.01936967484652996,0.38845980167388916,-0.31106796860694885,0.0,0.0,0.0,1.5692915076209473,70,255,255,255
314,10.725189049999699,17.441410064697266,-3.2687971591949463,-14.856063842773438,-0.015482703223824501,0.42653486132621765,-0.2955995798110962,0.0,0.0,0.0,1.5695032289276085,70,255,255,255
315,10.757629029999862,17.42966079711914,-3.2586421966552734,-14.859848022460938,-0.01637077145278454,0.47349002957344055,-0.28114768862724304,0.0,0.0,0.0,1.5694823231130515,70,255,255,255
316,10.790299562999735,17.41941261291504,-3.246837615966797,-14.864059448242188,-0.0212547667324543,0.5015666484832764,-0.2750515639781952,0.0,0.0,0.0,1.5696788644014994,70,255,255,255
317,10.826828832999581,17.407176971435547,-3.2352144718170166,-14.866409301757812,-0.0364881306886673,0.5292919874191284,-0.26270055770874023,0.0,0.0,0.0,1.5695700742709695,70,255,255,255
318,10.85935026199968,17.394411087036133,-3.223557949066162,-14.86712646484375,-0.019572041928768158,0.557395875453949,-0.2540416717529297,0.0,0.0,0.0,1.5693437055783128,70,255,255,255
319,10.892024037999818,17.382116317749023,-3.210171937942505,-14.868576049804688,-0.04784746840596199,0.5957816243171692,-0.25196415185928345,0.0,0.0,0.0,1.5693255960829002,70,255,255,255
320,10.928612946999692,17.367664337158203,-3.1914143562316895,-14.8712158203125,-0.04725409671664238,0.6239645481109619,-0.2317865788936615,0.0,0.0,0.0,1.5695180094716585,70,255,255,255
321,10.96100641699968,17.356063842773438,-3.1751439571380615,-14.873443603515625,-0.01906518265604973,0.6547387838363647,-0.21581317484378815,0.0,0.0,0.0,1.569751701857313,70,255,255,255
322,10.993509570999777,17.345460891723633,-3.1577234268188477,-14.875595092773438,-0.018134329468011856,0.6857728958129883,-0.18588608503341675,0.0,0.0,0.0,1.5700903227899166,70,255,255,255
323,11.030090199999904,17.335853576660156,-3.1385703086853027,-14.877395629882812,-0.000488069374114275,0.7253965139389038,-0.16466005146503448,0.0,0.0,0.0,1.5706154981568803,70,255,255,255
324,11.062352221999845,17.327674865722656,-3.1180062294006348,-14.879379272460938,0.010635030455887318,0.7615463137626648,-0.1807040572166443,0.0,0.0,0.0,1.572302477549391,70,255,255,255
325,11.095068875999914,17.319684982299805,-3.102285623550415,-14.8775634765625,0.013492293655872345,0.7986143231391907,-0.17401356995105743,0.0,0.0,0.0,1.5738593615226513,70,255,255,255
326,11.131754651999927,17.310754776000977,-3.0795063972473145,-14.876358032226562,0.029686111956834793,0.8544155359268188,-0.16666141152381897,0.0,0.0,0.0,1.5757293000820503,70,255,255,255
327,11.16399619799995,17.30474281311035,-3.0588765144348145,-14.8753662109375,0.029848221689462662,0.8885226249694824,-0.13662223517894745,0.0,0.0,0.0,1.5765491542236312,70,255,255,255
328,11.196754521000003,17.298967361450195,-3.0367469787597656,-14.874496459960938,0.06903218477964401,0.9393690228462219,-0.16560542583465576,0.0,0.0,0.0,1.579348269687359,70,255,255,255
329,11.233493424999779,17.29110336303711,-3.014287233352661,-14.872665405273438,0.09123562276363373,0.9848690032958984,-0.17670097947120667,0.0,0.0,0.0,1.580557344822255,70,255,255,255
330,11.265535261999958,17.28485870361328,-2.9894373416900635,-14.872161865234375,0.0884474664926529,1.040226936340332,-0.1995188295841217,0.0,0.0,0.0,1.583332225520063,70,255,255,255
331,11.2979942879997,17.27944564819336,-2.9622137546539307,-14.872940063476562,0.09726396203041077,1.0841726064682007,-0.20235390961170197,0.0,0.0,0.0,1.5868848824142288,70,255,255,255
332,11.335235114999705,17.27336883544922,-2.9288058280944824,-14.871826171875,0.10820723325014114,1.1407227516174316,-0.16475561261177063,0.0,0.0,0.0,1.589448707595648,70,255,255,255
333,11.367243867999605,17.269969940185547,-2.9010255336761475,-14.87042236328125,0.12785010039806366,1.1949474811553955,-0.15505406260490417,0.0,0.0,0.0,1.5926626103991557,70,255,255,255
334,11.399687167999673,17.267616271972656,-2.870802164077759,-14.86944580078125,0.15896426141262054,1.2397480010986328,-0.1469482183456421,0.0,0.0,0.0,1.5958100673334659,70,255,255,255
335,11.436696076999851,17.267290115356445,-2.8382110595703125,-14.868820190429688,0.17426958680152893,1.2922098636627197,-0.15090952813625336,0.0,0.0,0.0,1.5980521826552037,70,255,255,255
336,11.46888808499989,17.266855239868164,-2.806396007537842,-14.8675537109375,0.15970449149608612,1.3294479846954346,-0.16014322638511658,0.0,0.0,0.0,1.6029834248876487,70,255,255,255
337,11.501296992999869,17.26751708984375,-2.7732112407684326,-14.866714477539062,0.1965598613023758,1.370023488998413,-0.1563837081193924,0.0,0.0,0.0,1.6080251883053323,70,255,255,255
338,11.538362999999663,17.27080535888672,-2.7284624576568604,-14.8670654296875,0.24010376632213593,1.4290077686309814,-0.16534478962421417,0.0,0.0,0.0,1.6108040637447754,70,255,255,255
339,11.57052187699992,17.2750244140625,-2.690244674682617,-14.867340087890625,0.26191768050193787,1.469782829284668,-0.1346064656972885,0.0,0.0,0.0,1.6163116140371139,70,255,255,255
340,11.603060273999745,17.278369903564453,-2.6521997451782227,-14.867034912109375,0.27500295639038086,1.5220903158187866,-0.14326009154319763,0.0,0.0,0.0,1.6212672241935333,70,255,255,255
341,11.640654367000025,17.282670974731445,-2.611861228942871,-14.867218017578125,0.28078943490982056,1.5585911273956299,-0.14471596479415894,0.0,0.0,0.0,1.6274204578921614,70,255,255,255
342,11.672901200999604,17.288156509399414,-2.5691978931427,-14.868179321289062,0.2990500032901764,1.6093559265136719,-0.15629862248897552,0.0,0.0,0.0,1.6293492523116513,70,255,255,255
343,11.705040322999594,17.293670654296875,-2.525392770767212,-14.869827270507812,0.2874452769756317,1.6516239643096924,-0.17658695578575134,0.0,0.0,0.0,1.6356464298671982,70,255,255,255
344,11.742133141999602,17.299694061279297,-2.471630334854126,-14.87225341796875,0.2771901488304138,1.7041977643966675,-0.20223845541477203,0.0,0.0,0.0,1.6386512745251345,70,255,255,255
345,11.774215673999606,17.305727005004883,-2.4259417057037354,-14.875396728515625,0.29758358001708984,1.742031216621399,-0.21254059672355652,0.0,0.0,0.0,1.6448893299044816,70,255,255,255
346,11.80668625699991,17.312705993652344,-2.3781697750091553,-14.879241943359375,0.32002928853034973,1.7817026376724243,-0.2164451628923416,0.0,0.0,0.0,1.6508646644422924,70,255,255,255
347,11.844130480999866,17.31985855102539,-2.3296327590942383,-14.8812255859375,0.33730992674827576,1.8332290649414062,-0.2134064882993698,0.0,0.0,0.0,1.6575955377813587,70,255,255,255
348,11.876297216999774,17.32659149169922,-2.280130624771118,-14.88189697265625,0.35512056946754456,1.874853253364563,-0.20892292261123657,0.0,0.0,0.0,1.6606218208860701,70,255,255,255
349,11.90882679699962,17.334543228149414,-2.228262424468994,-14.88336181640625,0.3657919764518738,1.912960410118103,-0.20794840157032013,0.0,0.0,0.0,1.666931115824577,70,255,255,255
350,11.945979885999805,17.34449577331543,-2.1611924171447754,-14.884841918945312,0.3293076455593109,1.9387173652648926,-0.1634322702884674,0.0,0.0,0.0,1.6728949987697004,70,255,255,255
351,11.9782219599997,17.35223388671875,-2.1093266010284424,-14.882949829101562,0.31863364577293396,1.9715951681137085,-0.16406887769699097,0.0,0.0,0.0,1.6762081043238135,70,255,255,255
352,12.010631057999944,17.35938262939453,-2.056753158569336,-14.880706787109375,0.30723312497138977,1.9968681335449219,-0.14522923529148102,0.0,0.0,0.0,1.681788358913911,70,255,255,255
353,12.048311952999939,17.365888595581055,-2.0020132064819336,-14.878555297851562,0.2617730498313904,2.0367064476013184,-0.13600361347198486,0.0,0.0,0.0,1.688138932849314,70,255,255,255
354,12.080130928000017,17.372522354125977,-1.9451196193695068,-14.87701416015625,0.28834301233291626,2.0745251178741455,-0.12690004706382751,0.0,0.0,0.0,1.6915443169351982,70,255,255,255
355,12.112534208999932,17.377273559570312,-1.8896747827529907,-14.876144409179688,0.243096262216568,2.103792905807495,-0.12650100886821747,0.0,0.0,0.0,1.6972681159080512,70,255,255,255
356,12.149920827999722,17.383211135864258,-1.8170794248580933,-14.87646484375,0.2309177964925766,2.1570136547088623,-0.15313726663589478,0.0,0.0,0.0,1.703060358120919,70,255,255,255
357,12.18190833699964,17.388818740844727,-1.7563921213150024,-14.877578735351562,0.2613476514816284,2.1897177696228027,-0.12645989656448364,0.0,0.0,0.0,1.705919261551119,70,255,255,255
358,12.214353648999804,17.395423889160156,-1.6947250366210938,-14.878219604492188,0.2595103979110718,2.2370665073394775,-0.13177335262298584,0.0,0.0,0.0,1.712343605048717,70,255,255,255
359,12.25143993499978,17.403453826904297,-1.6334418058395386,-14.878799438476562,0.2782402038574219,2.2830419540405273,-0.14496184885501862,0.0,0.0,0.0,1.7155391320407032,70,255,255,255
360,12.283425394999995,17.412031173706055,-1.569678783416748,-14.88006591796875,0.27427706122398376,2.325258731842041,-0.15260107815265656,0.0,0.0,0.0,1.7212778447156605,70,255,255,255
361,12.316013955000017,17.42011260986328,-1.5034682750701904,-14.882537841796875,0.25124219059944153,2.3707971572875977,-0.17200754582881927,0.0,0.0,0.0,1.72648445780482,70,255,255,255
362,12.353211803999784,17.429981231689453,-1.4199161529541016,-14.882858276367188,0.19114471971988678,2.3975186347961426,-0.13992349803447723,0.0,0.0,0.0,1.728591684017345,70,255,255,255
363,12.385589205999622,17.4371280670166,-1.352291226387024,-14.88134765625,0.1683783084154129,2.4290482997894287,-0.12761229276657104,0.0,0.0,0.0,1.7330954888948324,70,255,255,255
364,12.41743571699999,17.443058013916016,-1.282898187637329,-14.880264282226562,0.09937768429517746,2.448913812637329,-0.13473743200302124,0.0,0.0,0.0,1.736836164961958,70,255,255,255
365,12.45452127999988,17.447492599487305,-1.2119789123535156,-14.87994384765625,0.07891244441270828,2.4706830978393555,-0.12337715923786163,0.0,0.0,0.0,1.7390449907700696,70,255,255,255
366,12.486841954999818,17.449508666992188,-1.1438604593276978,-14.878982543945312,0.07217052578926086,2.4871129989624023,-0.11515550315380096,0.0,0.0,0.0,1.7438276286136885,70,255,255,255
367,12.519379579999622,17.451473236083984,-1.0751948356628418,-14.87847900390625,0.06962759047746658,2.505390167236328,-0.10376042872667313,0.0,0.0,0.0,1.7473732281309653,70,255,255,255
368,12.556479684999886,17.453109741210938,-0.9870137572288513,-14.87811279296875,0.043217018246650696,2.5322866439819336,-0.08856992423534393,0.0,0.0,0.0,1.7492808504197892,70,255,255,255
369,12.588940060999903,17.454437255859375,-0.9150331616401672,-14.87738037109375,0.054176922887563705,2.536571741104126,-0.07413128763437271,0.0,0.0,0.0,1.7523609293785203,70,255,255,255
370,12.620701974999974,17.45737075805664,-0.8444116115570068,-14.872406005859375,0.040316954255104065,2.5529446601867676,-0.09010612219572067,0.0,0.0,0.0,1.7566275797609363,70,255,255,255
371,12.658367108999755,17.46018409729004,-0.7721335291862488,-14.868515014648438,0.052232544869184494,2.5730416774749756,-0.08882542699575424,0.0,0.0,0.0,1.7586561095632496,70,255,255,255
372,12.689731729999949,17.46407699584961,-0.6983379125595093,-14.865707397460938,0.10137572884559631,2.5883495807647705,-0.09432260692119598,0.0,0.0,0.0,1.762383869299088,70,255,255,255
373,12.722291140999914,17.469072341918945,-0.6240102052688599,-14.86297607421875,0.08100878447294235,2.598330497741699,-0.11239366978406906,0.0,0.0,0.0,1.76654958587619,70,255,255,255
374,12.759248243000002,17.47586441040039,-0.5323241353034973,-14.858230590820312,0.0876358151435852,2.616645097732544,-0.12974905967712402,0.0,0.0,0.0,1.7685371029977162,70,255,255,255
375,12.791993316999651,17.481060028076172,-0.4576188325881958,-14.855819702148438,0.0868038609623909,2.6185715198516846,-0.131502166390419,0.0,0.0,0.0,1.7727459627844773,70,255,255,255
376,12.82404820399961,17.48664093017578,-0.3815298080444336,-14.854248046875,0.10480304062366486,2.638718843460083,-0.14089074730873108,0.0,0.0,0.0,1.7766106090003457,70,255,255,255
377,12.861853940999936,17.492496490478516,-0.30507785081863403,-14.851394653320312,0.11265411972999573,2.653656005859375,-0.16041049361228943,0.0,0.0,0.0,1.7789238307231885,70,255,255,255
378,12.893936940000003,17.497344970703125,-0.22852492332458496,-14.847564697265625,0.09389830380678177,2.6634409427642822,-0.17435038089752197,0.0,0.0,0.0,1.7827333495044924,70,255,255,255
379,12.925695408999673,17.501934051513672,-0.15095119178295135,-14.844757080078125,0.09618932008743286,2.6667592525482178,-0.16040249168872833,0.0,0.0,0.0,1.7861148982986206,70,255,255,255
380,12.962555959999918,17.506772994995117,-0.05266563966870308,-14.84246826171875,0.04630361869931221,2.671480417251587,-0.1565173715353012,0.0,0.0,0.0,1.788281113529291,70,255,255,255
381,12.995117386999937,17.511173248291016,0.025167645886540413,-14.84014892578125,0.04204815998673439,2.688685417175293,-0.16281160712242126,0.0,0.0,0.0,1.7926332513826986,70,255,255,255
382,13.027472541999941,17.515411376953125,0.1034790426492691,-14.838348388671875,0.0365607850253582,2.7026889324188232,-0.16937893629074097,0.0,0.0,0.0,1.795555671204897,70,255,255,255
383,13.064408462999836,17.519023895263672,0.1831613928079605,-14.8375244140625,0.0022468012757599354,2.708819627761841,-0.1610206812620163,0.0,0.0,0.0,1.7970164150628054,70,255,255,255
384,13.096750220999638,17.522167205810547,0.26387518644332886,-14.837066650390625,0.004499146249145269,2.7256438732147217,-0.14672984182834625,0.0,0.0,0.0,1.8010784015154488,70,255,255,255
385,13.15346173099988,17.527158737182617,0.34122100472450256,-14.837295532226562,0.010818851180374622,2.728790521621704,-0.1498132348060608,0.0,0.0,0.0,1.804819077582574,70,255,255,255
386,13.189959498999997,17.532194137573242,0.4392763674259186,-14.838790893554688,-0.011165987700223923,2.730836868286133,-0.15777921676635742,0.0,0.0,0.0,1.80641337896915,70,255,255,255
387,13.230105172999629,17.5360050201416,0.5187931060791016,-14.840057373046875,0.0031148577108979225,2.7288827896118164,-0.12194421142339706,0.0,0.0,0.0,1.80641337896915,70,255,255,255
388,13.279370511999787,17.539793014526367,0.5983918905258179,-14.841171264648438,-0.003545846324414015,2.731433153152466,-0.13256129622459412,0.0,0.0,0.0,1.808631525841077,70,255,255,255
389,13.31772884899965,17.543956756591797,0.6766630411148071,-14.84234619140625,0.014371555298566818,2.7379462718963623,-0.1417614072561264,0.0,0.0,0.0,1.8106954756858884,70,255,255,255
390,13.345268181999927,17.54774284362793,0.7561686038970947,-14.844009399414062,-0.004491710569709539,2.747058868408203,-0.1313679814338684,0.0,0.0,0.0,1.8106954756858884,70,255,255,255
391,13.367725586999768,17.551177978515625,0.8363539576530457,-14.845703125,-0.02271014079451561,2.7211315631866455,-0.11045370250940323,0.0,0.0,0.0,1.812917217825287,70,255,255,255
392,13.375748136999846,17.553930282592773,0.9327797889709473,-14.847366333007812,-0.06886453926563263,2.6950390338897705,-0.10301143676042557,0.0,0.0,0.0,1.8150572009192203,70,255,255,255
393,13.40659345999984,17.555665969848633,1.0090986490249634,-14.849258422851562,-0.09274435043334961,2.6965413093566895,-0.107645183801651,0.0,0.0,0.0,1.8257841474739505,70,255,255,255
394,13.439457404999757,17.556440353393555,1.0863653421401978,-14.85162353515625,-0.10614770650863647,2.690999984741211,-0.1124771386384964,0.0,0.0,0.0,1.8341319590688583,70,255,255,255
395,13.475209728999744,17.55672264099121,1.1643658876419067,-14.854141235351562,-0.11441643536090851,2.6801908016204834,-0.09518731385469437,0.0,0.0,0.0,1.8357120125436022,70,255,255,255
396,13.507475368999621,17.55673599243164,1.2416411638259888,-14.855499267578125,-0.15187948942184448,2.6651742458343506,-0.10285573452711105,0.0,0.0,0.0,1.838944158000577,70,255,255,255
397,13.539880771999833,17.55633544921875,1.3188695907592773,-14.856491088867188,-0.17185266315937042,2.6453592777252197,-0.08376166969537735,0.0,0.0,0.0,1.84074325647498,70,255,255,255
398,13.576476430999719,17.554231643676758,1.415282964706421,-14.857696533203125,-0.19595573842525482,2.598226547241211,-0.07461513578891754,0.0,0.0,0.0,1.8412283512675378,70,255,255,255
399,13.608877702999962,17.551969528198242,1.4919453859329224,-14.85888671875,-0.2012673020362854,2.564204216003418,-0.07881966978311539,0.0,0.0,0.0,1.844146243715883,70,255,255,255
400,13.641504171999713,17.551528930664062,1.5647153854370117,-14.857650756835938,-0.14657434821128845,2.542064666748047,-0.08863218873739243,0.0,0.0,0.0,1.849249659312802,70,255,255,255
401,13.678142080999805,17.55184555053711,1.6376632452011108,-14.857101440429688,-0.1383173018693924,2.5011091232299805,-0.07418550550937653,0.0,0.0,0.0,1.8529972595987616,70,255,255,255
402,13.710348526999951,17.552310943603516,1.7104123830795288,-14.8565673828125,-0.11442835628986359,2.4844343662261963,-0.08005103468894958,0.0,0.0,0.0,1.8617389527188921,70,255,255,255
403,13.743002244999843,17.553131103515625,1.7823772430419922,-14.856155395507812,-0.10585659742355347,2.4680562019348145,-0.09873775392770767,0.0,0.0,0.0,1.8699384262410825,70,255,255,255
404,13.779808622000019,17.556076049804688,1.8693724870681763,-14.853851318359375,-0.1022804006934166,2.4523401260375977,-0.11024171859025955,0.0,0.0,0.0,1.8783544147598965,70,255,255,255
405,13.812157827999727,17.557758331298828,1.9397729635238647,-14.853134155273438,-0.1287968009710312,2.4479458332061768,-0.11945132166147232,0.0,0.0,0.0,1.882102547678074,70,255,255,255
406,13.845165726999767,17.558340072631836,2.011021614074707,-14.85321044921875,-0.13746945559978485,2.4491183757781982,-0.12491846084594727,0.0,0.0,0.0,1.8896849667756932,70,255,255,255
407,13.881552033999924,17.55929183959961,2.081174612045288,-14.854415893554688,-0.136402890086174,2.4673092365264893,-0.14130663871765137,0.0,0.0,0.0,1.892088602817544,70,255,255,255
408,13.9136701059997,17.559667587280273,2.150214910507202,-14.856414794921875,-0.18723933398723602,2.460512638092041,-0.13018926978111267,0.0,0.0,0.0,1.899140120751856,70,255,255,255
409,13.94668185799992,17.558473587036133,2.219984531402588,-14.858856201171875,-0.21658781170845032,2.4460673332214355,-0.1287381649017334,0.0,0.0,0.0,1.9053016102498632,70,255,255,255
410,13.98313111699963,17.55552101135254,2.308535575866699,-14.861572265625,-0.22165556252002716,2.458665609359741,-0.10610436648130417,0.0,0.0,0.0,1.9106210082111876,70,255,255,255
411,14.015394107999782,17.555387496948242,2.3799784183502197,-14.86358642578125,-0.23568183183670044,2.4668211936950684,-0.10217823088169098,0.0,0.0,0.0,1.913006002125408,70,255,255,255
412,14.048425374999624,17.554941177368164,2.452214002609253,-14.865676879882812,-0.25221413373947144,2.4746954441070557,-0.08767558634281158,0.0,0.0,0.0,1.9182755989743479,70,255,255,255
413,14.08488019799961,17.553190231323242,2.525437116622925,-14.867828369140625,-0.2875332534313202,2.4768991470336914,-0.10659641772508621,0.0,0.0,0.0,1.923216295428663,70,255,255,255
414,14.117147509999995,17.549978256225586,2.599252462387085,-14.86993408203125,-0.3026782274246216,2.4752814769744873,-0.06932162493467331,0.0,0.0,0.0,1.9253841085559873,70,255,255,255
415,14.149993877999805,17.549955368041992,2.670642375946045,-14.87060546875,-0.3334854543209076,2.47385311126709,-0.06320570409297943,0.0,0.0,0.0,1.929083372468162,70,255,255,255
416,14.186572139999953,17.5478458404541,2.7616782188415527,-14.872222900390625,-0.34835487604141235,2.4945812225341797,-0.07937774062156677,0.0,0.0,0.0,1.931015096364851,70,255,255,255
417,14.219047197999771,17.544836044311523,2.8356428146362305,-14.874038696289062,-0.3671684265136719,2.49310040473938,-0.07782654464244843,0.0,0.0,0.0,1.9351957266440571,70,255,255,255
418,14.251922215999912,17.540287017822266,2.909564971923828,-14.876205444335938,-0.39472246170043945,2.4962387084960938,-0.09939680248498917,0.0,0.0,0.0,1.939491938114573,70,255,255,255
419,14.288725187999717,17.535064697265625,2.9823200702667236,-14.87921142578125,-0.39801129698753357,2.4967243671417236,-0.08599904924631119,0.0,0.0,0.0,1.9412618749750397,70,255,255,255
420,14.321522497999922,17.528745651245117,3.056014060974121,-14.882431030273438,-0.44653382897377014,2.491299629211426,-0.10195867717266083,0.0,0.0,0.0,1.9439938787792974,70,255,255,255
421,14.354253894999601,17.520238876342773,3.130262851715088,-14.88629150390625,-0.4726022779941559,2.49802303314209,-0.1265866458415985,0.0,0.0,0.0,1.9478372197064453,70,255,255,255
422,14.39015850199985,17.509851455688477,3.2213501930236816,-14.890289306640625,-0.5120910406112671,2.4806101322174072,-0.1146124005317688,0.0,0.0,0.0,1.9496155455243458,70,255,255,255
423,14.422885714999666,17.501678466796875,3.293732166290283,-14.892913818359375,-0.5232878923416138,2.474209785461426,-0.10564704984426498,0.0,0.0,0.0,1.9525472864103595,70,255,255,255
424,14.455835195999953,17.491899490356445,3.366358757019043,-14.895339965820312,-0.5623476505279541,2.451676845550537,-0.09279271215200424,0.0,0.0,0.0,1.955493275208205,70,255,255,255
425,14.492092283999682,17.480205535888672,3.439120054244995,-14.89788818359375,-0.5966847538948059,2.437228202819824,-0.10143907368183136,0.0,0.0,0.0,1.9587268854037794,70,255,255,255
426,14.524508107999736,17.467893600463867,3.510265588760376,-14.89886474609375,-0.601426899433136,2.430124282836914,-0.07566240429878235,0.0,0.0,0.0,1.9604367679816648,70,255,255,255
427,14.557358672999726,17.454526901245117,3.5812792778015137,-14.898880004882812,-0.6194599270820618,2.428239107131958,-0.06527718901634216,0.0,0.0,0.0,1.9638583973501986,70,255,255,255
428,14.594014386999788,17.436853408813477,3.670952796936035,-14.898651123046875,-0.6167616844177246,2.4183835983276367,-0.042453888803720474,0.0,0.0,0.0,1.9648211300842622,70,255,255,255
429,14.626142101999903,17.42165184020996,3.743196487426758,-14.898040771484375,-0.6513279676437378,2.408472776412964,-0.006103805266320705,0.0,0.0,0.0,1.9679960175778002,70,255,255,255
430,14.659175267999672,17.408418655395508,3.815119504928589,-14.895751953125,-0.6559606790542603,2.428407669067383,-0.01351738441735506,0.0,0.0,0.0,1.9708462657344574,70,255,255,255
431,14.695780527999887,17.394941329956055,3.888338327407837,-14.8944091796875,-0.6201577186584473,2.4452695846557617,-0.024262094870209694,0.0,0.0,0.0,1.974531015418691,70,255,255,255
432,14.72804350899969,17.381248474121094,3.9620864391326904,-14.893234252929688,-0.6409662961959839,2.4194822311401367,-0.014365666545927525,0.0,0.0,0.0,1.976260871704752,70,255,255,255
433,14.760997005999798,17.367225646972656,4.03516960144043,-14.89166259765625,-0.6470394134521484,2.4263617992401123,-0.027370447292923927,0.0,0.0,0.0,1.9800493515134443,70,255,255,255
434,14.797537914999793,17.353425979614258,4.125617027282715,-14.889602661132812,-0.6191213726997375,2.457700729370117,-0.06300094723701477,0.0,0.0,0.0,1.9818646952704968,70,255,255,255
435,14.829549303000022,17.341447830200195,4.198975563049316,-14.888946533203125,-0.64337158203125,2.4500956535339355,-0.06518054008483887,0.0,0.0,0.0,1.9863957975491575,70,255,255,255
436,14.862785329999952,17.327503204345703,4.27297306060791,-14.8887939453125,-0.6954676508903503,2.4431674480438232,-0.05980497598648071,0.0,0.0,0.0,1.991044078915782,70,255,255,255
437,14.899431903999812,17.31303596496582,4.346345901489258,-14.888137817382812,-0.7276373505592346,2.4270617961883545,-0.02100422792136669,0.0,0.0,0.0,1.9929869880890492,70,255,255,255
438,14.931798942999649,17.29825782775879,4.419356346130371,-14.887100219726562,-0.7362965941429138,2.430043935775757,-0.010638630948960781,0.0,0.0,0.0,1.9963994295518221,70,255,255,255
439,14.96469380399958,17.282817840576172,4.493513584136963,-14.886734008789062,-0.7276836037635803,2.4500741958618164,-0.03556624799966812,0.0,0.0,0.0,2.000600699329477,70,255,255,255
440,15.001575770999807,17.261920928955078,4.586816787719727,-14.887039184570312,-0.7401662468910217,2.43473219871521,-0.0473909005522728,0.0,0.0,0.0,2.0047806638184107,70,255,255,255
441,15.03362576299969,17.246734619140625,4.66082239151001,-14.8870849609375,-0.7343937754631042,2.441751480102539,-0.07227293401956558,0.0,0.0,0.0,2.006829566803063,70,255,255,255
442,15.066499439999916,17.231273651123047,4.735214710235596,-14.887832641601562,-0.7444024682044983,2.444974422454834,-0.08105376362800598,0.0,0.0,0.0,2.010512718590643,70,255,255,255
443,15.103066207999746,17.215072631835938,4.810216426849365,-14.888916015625,-0.7424543499946594,2.4507699012756348,-0.07577290385961533,0.0,0.0,0.0,2.015325450154579,70,255,255,255
444,15.135399167999822,17.198562622070312,4.885900497436523,-14.89013671875,-0.7150406241416931,2.4586246013641357,-0.06738186627626419,0.0,0.0,0.0,2.0173116356955605,70,255,255,255
445,15.168301638999765,17.181379318237305,4.961372375488281,-14.88970947265625,-0.7524224519729614,2.449998140335083,-0.09784333407878876,0.0,0.0,0.0,2.0220736340407313,70,255,255,255
446,15.204959353999584,17.156766891479492,5.055349826812744,-14.890304565429688,-0.7921285629272461,2.4380931854248047,-0.09536750614643097,0.0,0.0,0.0,2.02449258325885,70,255,255,255
447,15.237153847999707,17.13524055480957,5.130743503570557,-14.891387939453125,-0.8289116621017456,2.4238924980163574,-0.1110038235783577,0.0,0.0,0.0,2.028850446908601,70,255,255,255
448,15.270079964999695,17.113500595092773,5.206274509429932,-14.892730712890625,-0.8377082943916321,2.424833297729492,-0.09692923724651337,0.0,0.0,0.0,2.0332678322087157,70,255,255,255
449,15.306557800999599,17.09364891052246,5.28191614151001,-14.89337158203125,-0.8273736834526062,2.4320285320281982,-0.09564425051212311,0.0,0.0,0.0,2.0381942807511986,70,255,255,255
450,15.33903879599984,17.07269859313965,5.357766628265381,-14.894500732421875,-0.8587161302566528,2.417746067047119,-0.11132510006427765,0.0,0.0,0.0,2.0405835357231634,70,255,255,255
451,15.372675153999808,17.050304412841797,5.433703899383545,-14.895889282226562,-0.8825451135635376,2.411729097366333,-0.08559228479862213,0.0,0.0,0.0,2.045295067165677,70,255,255,255
452,15.41000108299977,17.023284912109375,5.527734279632568,-14.895492553710938,-0.8912757039070129,2.403859853744507,-0.048783399164676666,0.0,0.0,0.0,2.047405089697347,70,255,255,255
453,15.44236691299966,17.00174331665039,5.6028289794921875,-14.894317626953125,-0.8911295533180237,2.4109437465667725,-0.04846248775720596,0.0,0.0,0.0,2.051929400915228,70,255,255,255
454,15.47506156199961,16.97977066040039,5.6785173416137695,-14.893569946289062,-0.8893583416938782,2.420170307159424,-0.07644565403461456,0.0,0.0,0.0,2.0563048414281737,70,255,255,255
455,15.5113781809996,16.95636749267578,5.7542595863342285,-14.893753051757812,-0.9186493158340454,2.3999197483062744,-0.05569380521774292,0.0,0.0,0.0,2.058605812610002,70,255,255,255
456,15.543803701999877,16.933290481567383,5.829573154449463,-14.893295288085938,-0.9476365447044373,2.39553165435791,-0.06074097380042076,0.0,0.0,0.0,2.063027325809806,70,255,255,255
457,15.576195432999612,16.90952491760254,5.904877185821533,-14.89251708984375,-0.9627988934516907,2.385690927505493,-0.052330002188682556,0.0,0.0,0.0,2.0677493767386257,70,255,255,255
458,15.612972326999625,16.877561569213867,5.998699188232422,-14.892181396484375,-1.0040700435638428,2.368467330932617,-0.05830470845103264,0.0,0.0,0.0,2.069905871431317,70,255,255,255
459,15.645443702999728,16.85101318359375,6.073747634887695,-14.892105102539062,-0.9886115193367004,2.3635611534118652,-0.03615085408091545,0.0,0.0,0.0,2.0742538813850353,70,255,255,255
460,15.67789079799968,16.827604293823242,6.149074077606201,-14.8896484375,-0.9990693926811218,2.3574085235595703,-0.03352900967001915,0.0,0.0,0.0,2.07922946524963,70,255,255,255
461,15.714535817999604,16.802915573120117,6.224239349365234,-14.887481689453125,-1.0108551979064941,2.349212884902954,-0.01545663271099329,0.0,0.0,0.0,2.081365054127765,70,255,255,255
462,15.746948570999848,16.776762008666992,6.298939228057861,-14.885391235351562,-1.0320528745651245,2.327166795730591,-0.0084962984547019,0.0,0.0,0.0,2.0853861610576754,70,255,255,255
463,15.779380366999703,16.749855041503906,6.373060703277588,-14.883590698242188,-1.0531624555587769,2.2973780632019043,-0.007029933389276266,0.0,0.0,0.0,2.089367720045398,70,255,255,255
464,15.815958508999756,16.715791702270508,6.464663982391357,-14.882797241210938,-1.0798677206039429,2.2738561630249023,-0.03885998949408531,0.0,0.0,0.0,2.0918701593636913,70,255,255,255
465,15.84840555699975,16.687976837158203,6.537747383117676,-14.882858276367188,-1.057906985282898,2.26635479927063,-0.03189932927489281,0.0,0.0,0.0,2.0964349506301416,70,255,255,255
466,15.881366720999722,16.659706115722656,6.610405921936035,-14.882843017578125,-1.050702691078186,2.252319097518921,-0.02573259174823761,0.0,0.0,0.0,2.1010392898387797,70,255,255,255
467,15.918044124999597,16.632644653320312,6.682598114013672,-14.883163452148438,-1.0430166721343994,2.2472596168518066,-0.02877299301326275,0.0,0.0,0.0,2.1050603967686903,70,255,255,255
468,15.950341572999605,16.606746673583984,6.7548441886901855,-14.883651733398438,-1.0392940044403076,2.243112564086914,-0.020643752068281174,0.0,0.0,0.0,2.1069015731883165,70,255,255,255
469,15.983401380000032,16.579790115356445,6.826928615570068,-14.884185791015625,-1.0426052808761597,2.2476789951324463,-0.028829902410507202,0.0,0.0,0.0,2.110994185993496,70,255,255,255
470,16.02007969899978,16.54546356201172,6.917184829711914,-14.884765625,-1.0258342027664185,2.246314287185669,-0.0004822300106752664,0.0,0.0,0.0,2.113147618050934,70,255,255,255
471,16.052196873999947,16.519323348999023,6.989829063415527,-14.885284423828125,-1.0531647205352783,2.220752477645874,-0.003408687887713313,0.0,0.0,0.0,2.1167761750361667,70,255,255,255
472,16.085246068999822,16.49296760559082,7.062417030334473,-14.88531494140625,-1.0473716259002686,2.2135581970214844,0.024412764236330986,0.0,0.0,0.0,2.1207245776683186,70,255,255,255
473,16.122310018999997,16.46519660949707,7.133975028991699,-14.884841918945312,-1.0728816986083984,2.17850923538208,0.02898966334760189,0.0,0.0,0.0,2.123962315763582,70,255,255,255
474,16.15424924099989,16.436330795288086,7.204598903656006,-14.884750366210938,-1.0839885473251343,2.1559770107269287,0.009249653667211533,0.0,0.0,0.0,2.1260329235111186,70,255,255,255
475,16.18750939599977,16.409257888793945,7.27580451965332,-14.885528564453125,-1.0788931846618652,2.152310609817505,-0.014390051364898682,0.0,0.0,0.0,2.1299656134928386,70,255,255,255
476,16.225905801999943,16.374324798583984,7.364614009857178,-14.887985229492188,-1.0833486318588257,2.1483006477355957,-0.046489667147397995,0.0,0.0,0.0,2.1335419725207063,70,255,255,255
477,16.25622193299978,16.345735549926758,7.435573101043701,-14.89056396484375,-1.0838546752929688,2.1433706283569336,-0.04169028624892235,0.0,0.0,0.0,2.1358746353195066,70,255,255,255
478,16.28971413799991,16.317590713500977,7.5057454109191895,-14.89312744140625,-1.0893129110336304,2.128709554672241,-0.06467816978693008,0.0,0.0,0.0,2.1403487459508397,70,255,255,255
479,16.32656225699975,16.291400909423828,7.5744805335998535,-14.895706176757812,-1.113879680633545,2.108865261077881,-0.06878706067800522,0.0,0.0,0.0,2.144845626609493,70,255,255,255
480,16.358227039999747,16.264326095581055,7.643026351928711,-14.898239135742188,-1.1134309768676758,2.099931240081787,-0.05488578602671623,0.0,0.0,0.0,2.1466335398073175,70,255,255,255
481,16.391354233999664,16.236543655395508,7.711109638214111,-14.900726318359375,-1.1159706115722656,2.070441246032715,-0.06780774146318436,0.0,0.0,0.0,2.1500565007563965,70,255,255,255
482,16.42810013099961,16.203014373779297,7.793262958526611,-14.906478881835938,-1.1088799238204956,2.0656652450561523,-0.07273658365011215,0.0,0.0,0.0,2.1544780139562008,70,255,255,255
483,16.46023485099977,16.17707633972168,7.8578996658325195,-14.911483764648438,-1.094944953918457,2.0640556812286377,-0.062226273119449615,0.0,0.0,0.0,2.1566723255363716,70,255,255,255
484,16.493270325999674,16.150423049926758,7.922702312469482,-14.916275024414062,-1.0959304571151733,2.0601720809936523,-0.08395843952894211,0.0,0.0,0.0,2.1612280620551156,70,255,255,255
485,16.530205661999844,16.12299919128418,7.987624168395996,-14.921615600585938,-1.0874476432800293,2.0572152137756348,-0.07149050384759903,0.0,0.0,0.0,2.1656860605618538,70,255,255,255
486,16.562074411999674,16.098976135253906,8.05166244506836,-14.926406860351562,-1.103454828262329,2.0432190895080566,-0.06832901388406754,0.0,0.0,0.0,2.1675651870270136,70,255,255,255
487,16.59490765800001,16.074073791503906,8.11474895477295,-14.930892944335938,-1.1317118406295776,2.0189452171325684,-0.05467800423502922,0.0,0.0,0.0,2.172107607740307,70,255,255,255
488,16.632072692999827,16.039648056030273,8.192367553710938,-14.935821533203125,-1.18594229221344,1.968509316444397,-0.04446415230631828,0.0,0.0,0.0,2.174414571034588,70,255,255,255
489,16.664121812999838,16.009984970092773,8.253718376159668,-14.939346313476562,-1.20087468624115,1.9533579349517822,-0.05002496764063835,0.0,0.0,0.0,2.1783520547062705,70,255,255,255
490,16.69707575199982,15.982528686523438,8.314424514770508,-14.94287109375,-1.2118198871612549,1.9279285669326782,-0.04486185312271118,0.0,0.0,0.0,2.1828585227448483,70,255,255,255
491,16.73384561199964,15.953253746032715,8.37463092803955,-14.946624755859375,-1.2536308765411377,1.9037197828292847,-0.06790102273225784,0.0,0.0,0.0,2.185020077443611,70,255,255,255
492,16.76598185399962,15.921978950500488,8.434521675109863,-14.95050048828125,-1.2627660036087036,1.8960928916931152,-0.051662199199199677,0.0,0.0,0.0,2.189663565120273,70,255,255,255
493,16.799059252000006,15.891406059265137,8.494227409362793,-14.95452880859375,-1.2633609771728516,1.8872970342636108,-0.052591852843761444,0.0,0.0,0.0,2.1927762678023575,70,255,255,255
494,16.83561829099972,15.85660457611084,8.567797660827637,-14.962493896484375,-1.2864071130752563,1.874794363975525,-0.06241588667035103,0.0,0.0,0.0,2.1952536734064036,70,255,255,255
495,16.867777749999732,15.827363014221191,8.626617431640625,-14.968490600585938,-1.2826454639434814,1.8592925071716309,-0.05940723046660423,0.0,0.0,0.0,2.200649637249068,70,255,255,255
496,16.900644718999956,15.796590805053711,8.684951782226562,-14.97406005859375,-1.2969497442245483,1.8326621055603027,-0.05287257209420204,0.0,0.0,0.0,2.20515091212352,70,255,255,255
497,16.937317705999703,15.766709327697754,8.74417781829834,-14.97967529296875,-1.3044685125350952,1.813214898109436,-0.06663968414068222,0.0,0.0,0.0,2.2078179347971796,70,255,255,255
498,16.969763124999645,15.737471580505371,8.804253578186035,-14.985031127929688,-1.3131444454193115,1.7876026630401611,-0.051183294504880905,0.0,0.0,0.0,2.2117286536999066,70,255,255,255
499,17.002778890999707,15.707173347473145,8.863605499267578,-14.989761352539062,-1.2954121828079224,1.7750756740570068,-0.02614140324294567,0.0,0.0,0.0,2.216306627613753,70,255,255,255
500,17.039591470999767,15.668298721313477,8.937551498413086,-14.9945068359375,-1.297719955444336,1.7725168466567993,-0.02502228133380413,0.0,0.0,0.0,2.221481682243995,70,255,255,255
501,17.071912124999926,15.638699531555176,8.99551773071289,-15.000076293945312,-1.3378970623016357,1.7383091449737549,-0.0329320915043354,0.0,0.0,0.0,2.2238387129667694,70,255,255,255
502,17.10519457999999,15.60765552520752,9.052213668823242,-15.005783081054688,-1.3705986738204956,1.7003018856048584,-0.01927168108522892,0.0,0.0,0.0,2.2277880477053023,70,255,255,255
503,17.141506774999925,15.57469367980957,9.107951164245605,-15.0107421875,-1.38064706325531,1.6799226999282837,-0.016279282048344612,0.0,0.0,0.0,2.232808505834265,70,255,255,255
504,17.1738695439999,15.540459632873535,9.163117408752441,-15.01507568359375,-1.4014370441436768,1.6593995094299316,-0.008956613950431347,0.0,0.0,0.0,2.234898687815814,70,255,255,255
505,17.206805855999846,15.509661674499512,9.219541549682617,-15.014755249023438,-1.396022081375122,1.6625334024429321,0.0067083039321005344,0.0,0.0,0.0,2.2392012908729457,70,255,255,255
506,17.243610326999715,15.469390869140625,9.289653778076172,-15.014114379882812,-1.3875908851623535,1.653802514076233,0.024461474269628525,0.0,0.0,0.0,2.243702299431289,70,255,255,255
507,17.27643477499987,15.436264038085938,9.345473289489746,-15.013290405273438,-1.391069769859314,1.6440261602401733,0.025772182270884514,0.0,0.0,0.0,2.246335100484941,70,255,255,255
508,17.308760483999777,15.402935981750488,9.401774406433105,-15.012969970703125,-1.407531976699829,1.6175466775894165,0.03631550073623657,0.0,0.0,0.0,2.2505463571166837,70,255,255,255
509,17.34537650099992,15.372161865234375,9.460996627807617,-15.014694213867188,-1.4171457290649414,1.6072392463684082,0.022964317351579666,0.0,0.0,0.0,2.2553823913401585,70,255,255,255
510,17.37766198999998,15.339578628540039,9.519183158874512,-15.0164794921875,-1.4296520948410034,1.5884380340576172,0.008122462779283524,0.0,0.0,0.0,2.2575502044674827,70,255,255,255
511,17.410797438999907,15.305654525756836,9.576315879821777,-15.018630981445312,-1.4101744890213013,1.5909487009048462,-0.005910050589591265,0.0,0.0,0.0,2.2613750364250547,70,255,255,255
512,17.44734716999983,15.26611042022705,9.647653579711914,-15.024002075195312,-1.3683565855026245,1.5977766513824463,-0.018971016630530357,0.0,0.0,0.0,2.2635191474186773,70,255,255,255
513,17.479635439999583,15.235671997070312,9.704580307006836,-15.029617309570312,-1.3735824823379517,1.5841646194458008,-0.05050482228398323,0.0,0.0,0.0,2.26807395183104,70,255,255,255
514,17.513135912999587,15.203468322753906,9.760624885559082,-15.035018920898438,-1.3855897188186646,1.5787012577056885,-0.032370440661907196,0.0,0.0,0.0,2.2728290259573765,70,255,255,255
515,17.54936857299981,15.169897079467773,9.816235542297363,-15.040283203125,-1.3933582305908203,1.575828194618225,-0.052823200821876526,0.0,0.0,0.0,2.2748855189511357,70,255,255,255
516,17.582135395000023,15.138334274291992,9.872518539428711,-15.044219970703125,-1.4013310670852661,1.5600627660751343,-0.047501061111688614,0.0,0.0,0.0,2.2790368544583512,70,255,255,255
517,17.615416851999726,15.106693267822266,9.92850112915039,-15.04736328125,-1.3933920860290527,1.5569727420806885,-0.05396081134676933,0.0,0.0,0.0,2.2835831367552255,70,255,255,255
518,17.651340634999997,15.064987182617188,9.997154235839844,-15.052047729492188,-1.4055285453796387,1.542476773262024,-0.0652458593249321,0.0,0.0,0.0,2.2860162007271216,70,255,255,255
519,17.683699284999875,15.03000259399414,10.051300048828125,-15.055145263671875,-1.392350435256958,1.5468156337738037,-0.04794282093644142,0.0,0.0,0.0,2.289496685955746,70,255,255,255
520,17.717127195999637,15.001136779785156,10.107637405395508,-15.057769775390625,-1.3773688077926636,1.5486055612564087,-0.023161165416240692,0.0,0.0,0.0,2.2937132689096686,70,255,255,255
521,17.753866764999657,14.970712661743164,10.163373947143555,-15.060562133789062,-1.3750863075256348,1.5543302297592163,-0.032598402351140976,0.0,0.0,0.0,2.298993784719078,70,255,255,255
522,17.785813850999602,14.939091682434082,10.218750953674316,-15.062942504882812,-1.3730533123016357,1.5537385940551758,-0.01346029993146658,0.0,0.0,0.0,2.3009072659622998,70,255,255,255
523,17.818914726000003,14.90756607055664,10.274571418762207,-15.064346313476562,-1.3585422039031982,1.5647249221801758,0.009708967991173267,0.0,0.0,0.0,2.304609326193619,70,255,255,255
524,17.85558795399993,14.870841979980469,10.347153663635254,-15.065841674804688,-1.371639609336853,1.5617345571517944,0.02359197475016117,0.0,0.0,0.0,2.3064458420813376,70,255,255,255
525,17.88766937199989,14.838872909545898,10.403532981872559,-15.0667724609375,-1.3982727527618408,1.5270661115646362,0.011229285039007664,0.0,0.0,0.0,2.3101787949813017,70,255,255,255
526,17.921090671,14.80522632598877,10.458728790283203,-15.067764282226562,-1.4120467901229858,1.5099204778671265,0.02091214992105961,0.0,0.0,0.0,2.314414552695073,70,255,255,255
527,17.95747729699997,14.773608207702637,10.514654159545898,-15.07037353515625,-1.4234482049942017,1.4904310703277588,0.015377892181277275,0.0,0.0,0.0,2.316842822977007,70,255,255,255
528,17.989779602,14.74374771118164,10.571234703063965,-15.074020385742188,-1.4309823513031006,1.475542664527893,0.03567208722233772,0.0,0.0,0.0,2.3211608723684614,70,255,255,255
529,18.02361594099966,14.712096214294434,10.626687049865723,-15.076812744140625,-1.4371213912963867,1.473054051399231,0.039251867681741714,0.0,0.0,0.0,2.324841893627169,70,255,255,255
530,18.05963652399987,14.670480728149414,10.695075988769531,-15.07989501953125,-1.4343571662902832,1.4750348329544067,0.05087437108159065,0.0,0.0,0.0,2.3267151611379306,70,255,255,255
531,18.09196258599968,14.639748573303223,10.75172233581543,-15.082015991210938,-1.4486017227172852,1.4617794752120972,0.0731920674443245,0.0,0.0,0.0,2.329837184883831,70,255,255,255
532,18.126281189999645,14.608580589294434,10.80848217010498,-15.083816528320312,-1.4446446895599365,1.4792410135269165,0.06016918644309044,0.0,0.0,0.0,2.33420769854876,70,255,255,255
533,18.161992799000018,14.575467109680176,10.864197731018066,-15.085647583007812,-1.4696117639541626,1.4603681564331055,0.07206891477108002,0.0,0.0,0.0,2.337950505144757,70,255,255,255
534,18.19412403699971,14.540374755859375,10.918985366821289,-15.087310791015625,-1.4704675674438477,1.477543830871582,0.055024586617946625,0.0,0.0,0.0,2.3399302990991218,70,255,255,255
535,18.22770060799985,14.507330894470215,10.9746732711792,-15.092758178710938,-1.495027780532837,1.4658864736557007,0.05331633985042572,0.0,0.0,0.0,2.343631027749896,70,255,255,255
536,18.263657922999755,14.463248252868652,11.042684555053711,-15.098739624023438,-1.5209543704986572,1.4404758214950562,0.06845192611217499,0.0,0.0,0.0,2.345679531260385,70,255,255,255
537,18.295892853999703,14.425379753112793,11.095558166503906,-15.103103637695312,-1.557827353477478,1.4167537689208984,0.0475839301943779,0.0,0.0,0.0,2.3494268652302357,70,255,255,255
538,18.3291024199998,14.386514663696289,11.148134231567383,-15.10784912109375,-1.5562654733657837,1.4297056198120117,0.04015454277396202,0.0,0.0,0.0,2.3538756758312127,70,255,255,255
539,18.36562380899977,14.348580360412598,11.20130443572998,-15.113555908203125,-1.5666497945785522,1.4022181034088135,0.04475049301981926,0.0,0.0,0.0,2.3581300756726145,70,255,255,255
540,18.398194408999643,14.309664726257324,11.253929138183594,-15.11865234375,-1.5367918014526367,1.4330527782440186,0.043986111879348755,0.0,0.0,0.0,2.36022518450218,70,255,255,255
541,18.43137231999981,14.2700834274292,11.3064603805542,-15.122787475585938,-1.5468218326568604,1.4386545419692993,0.057168006896972656,0.0,0.0,0.0,2.3642468240643084,70,255,255,255
542,18.467395501999817,14.22081470489502,11.372611045837402,-15.131317138671875,-1.5511341094970703,1.4371527433395386,0.05537964776158333,0.0,0.0,0.0,2.3684551512188516,70,255,255,255
543,18.499853370999972,14.181609153747559,11.425591468811035,-15.138992309570312,-1.539489984512329,1.4337987899780273,0.05083037540316582,0.0,0.0,0.0,2.3701894017207112,70,255,255,255
544,18.53292333499985,14.14128589630127,11.477481842041016,-15.1456298828125,-1.5474578142166138,1.422447681427002,0.058109622448682785,0.0,0.0,0.0,2.374656854449319,70,255,255,255
545,18.56987434599978,14.100102424621582,11.52881908416748,-15.150711059570312,-1.532122015953064,1.4247092008590698,0.10344643145799637,0.0,0.0,0.0,2.3782593124558695,70,255,255,255
546,18.601827477999905,14.062073707580566,11.58005428314209,-15.153045654296875,-1.556678295135498,1.3994202613830566,0.08209017664194107,0.0,0.0,0.0,2.3804401750725352,70,255,255,255
547,18.635049434999928,14.02387809753418,11.630525588989258,-15.154861450195312,-1.549159288406372,1.399046540260315,0.07971003651618958,0.0,0.0,0.0,2.3849917836915897,70,255,255,255
548,18.672026695999648,13.974568367004395,11.692744255065918,-15.156570434570312,-1.5497418642044067,1.383978247642517,0.10596007853746414,0.0,0.0,0.0,2.3894539100980174,70,255,255,255
549,18.70374644100002,13.934321403503418,11.74216079711914,-15.157272338867188,-1.527101755142212,1.4058806896209717,0.09992780536413193,0.0,0.0,0.0,2.391318655493291,70,255,255,255
550,18.736615789999632,13.89771842956543,11.796930313110352,-15.158233642578125,-1.5236650705337524,1.4037621021270752,0.11903724819421768,0.0,0.0,0.0,2.394884095560689,70,255,255,255
551,18.773746024999582,13.860136032104492,11.850997924804688,-15.158355712890625,-1.5231016874313354,1.4064621925354004,0.1291033774614334,0.0,0.0,0.0,2.396927272748998,70,255,255,255
552,18.80535147899991,13.821333885192871,11.903983116149902,-15.1583251953125,-1.5250298976898193,1.3828085660934448,0.13881784677505493,0.0,0.0,0.0,2.401402448644767,70,255,255,255
553,18.838368778999666,13.782405853271484,11.956358909606934,-15.157760620117188,-1.536896824836731,1.3616381883621216,0.14411553740501404,0.0,0.0,0.0,2.405804387610559,70,255,255,255
554,18.8760679359998,13.7372407913208,12.022749900817871,-15.15692138671875,-1.5271294116973877,1.3534334897994995,0.1664087176322937,0.0,0.0,0.0,2.4099565220661017,70,255,255,255
555,18.907052934999683,13.699725151062012,12.07474136352539,-15.155380249023438,-1.5345497131347656,1.340721607208252,0.17136749625205994,0.0,0.0,0.0,2.412157891023161,70,255,255,255
556,18.939923626999644,13.660149574279785,12.124918937683105,-15.153411865234375,-1.551596999168396,1.3148670196533203,0.1681021898984909,0.0,0.0,0.0,2.4169491841403223,70,255,255,255
557,18.976769212999898,13.622050285339355,12.176101684570312,-15.152481079101562,-1.5692055225372314,1.3183553218841553,0.13197989761829376,0.0,0.0,0.0,2.4187987495173826,70,255,255,255
558,19.00882269099975,13.585206985473633,12.228079795837402,-15.151535034179688,-1.5850770473480225,1.300065040588379,0.15148986876010895,0.0,0.0,0.0,2.4230883030851733,70,255,255,255
559,19.041856704999645,13.546839714050293,12.279051780700684,-15.150131225585938,-1.5790497064590454,1.3075032234191895,0.15604005753993988,0.0,0.0,0.0,2.4277461718317217,70,255,255,255
560,19.078332617999877,13.497175216674805,12.341754913330078,-15.147781372070312,-1.586613416671753,1.3017715215682983,0.1368233561515808,0.0,0.0,0.0,2.430201872672884,70,255,255,255
561,19.110769916999743,13.458792686462402,12.393081665039062,-15.147537231445312,-1.5625511407852173,1.320000410079956,0.13594961166381836,0.0,0.0,0.0,2.434915135170106,70,255,255,255
562,19.144342470999618,13.420578956604004,12.445152282714844,-15.14764404296875,-1.5678352117538452,1.3224048614501953,0.11757916957139969,0.0,0.0,0.0,2.4398960453568814,70,255,255,255
563,19.1994222659996,13.380558967590332,12.496264457702637,-15.148422241210938,-1.5867319107055664,1.331485629081726,0.08959610015153885,0.0,0.0,0.0,2.444487068760069,70,255,255,255
564,19.233762352999747,13.339388847351074,12.546957969665527,-15.14862060546875,-1.5668489933013916,1.3509013652801514,0.1081281527876854,0.0,0.0,0.0,2.444487068760069,70,255,255,255
565,19.268612247999954,13.305580139160156,12.602343559265137,-15.151763916015625,-1.5681930780410767,1.3341299295425415,0.10701572895050049,0.0,0.0,0.0,2.446399751054964,70,255,255,255
566,19.297271007999825,13.260824203491211,12.669123649597168,-15.15435791015625,-1.5795782804489136,1.3128182888031006,0.11782252788543701,0.0,0.0,0.0,2.4486759548386545,70,255,255,255
567,19.352527604999977,13.223114013671875,12.72097110748291,-15.15576171875,-1.5768744945526123,1.3178330659866333,0.12454741448163986,0.0,0.0,0.0,2.4486759548386545,70,255,255,255
568,19.37253232499961,13.186360359191895,12.773226737976074,-15.157745361328125,-1.575219988822937,1.3031331300735474,0.1419021636247635,0.0,0.0,0.0,2.450469593832823,70,255,255,255
569,19.414432974999727,13.154047012329102,12.827472686767578,-15.163223266601562,-1.5788089036941528,1.298637866973877,0.16562147438526154,0.0,0.0,0.0,2.4526366080118205,70,255,255,255
570,19.44721602699974,13.119625091552734,12.880556106567383,-15.167617797851562,-1.5962828397750854,1.2828590869903564,0.14980177581310272,0.0,0.0,0.0,2.4526366080118205,70,255,255,255
571,19.479713922999963,13.08286190032959,12.931811332702637,-15.171096801757812,-1.611126184463501,1.2620556354522705,0.16419489681720734,0.0,0.0,0.0,2.4547647400389025,70,255,255,255
572,19.498646206999638,13.039117813110352,12.997139930725098,-15.174758911132812,-1.6255366802215576,1.249234676361084,0.16342680156230927,0.0,0.0,0.0,2.456657182309513,70,255,255,255
573,19.52779813799998,13.004490852355957,13.049736022949219,-15.177658081054688,-1.6378751993179321,1.2320479154586792,0.1576354056596756,0.0,0.0,0.0,2.466377986604411,70,255,255,255
574,19.558587536999767,12.966890335083008,13.099638938903809,-15.179153442382812,-1.683746337890625,1.176838994026184,0.1907804012298584,0.0,0.0,0.0,2.4779001530606393,70,255,255,255
575,19.59466478899958,12.92670726776123,13.14746379852295,-15.17950439453125,-1.6906472444534302,1.1822848320007324,0.19639186561107635,0.0,0.0,0.0,2.481282900277258,70,255,255,255
576,19.62753210899973,12.888263702392578,13.196686744689941,-15.18048095703125,-1.712748408317566,1.161424160003662,0.19433768093585968,0.0,0.0,0.0,2.484487748333059,70,255,255,255
577,19.65973613799997,12.848804473876953,13.244789123535156,-15.180740356445312,-1.7189735174179077,1.1419382095336914,0.20106637477874756,0.0,0.0,0.0,2.489790102063407,70,255,255,255
578,19.696623348999765,12.79667854309082,13.30213737487793,-15.179931640625,-1.74903404712677,1.0926666259765625,0.2023915946483612,0.0,0.0,0.0,2.4964003342050924,70,255,255,255
579,19.73893634199976,12.752998352050781,13.345681190490723,-15.179046630859375,-1.7325754165649414,1.064713954925537,0.1928781121969223,0.0,0.0,0.0,2.499580414862756,70,255,255,255
580,19.76632721199985,12.715438842773438,13.392406463623047,-15.178695678710938,-1.706246018409729,1.0475585460662842,0.20700451731681824,0.0,0.0,0.0,2.501869668135788,70,255,255,255
581,19.800452786999813,12.67694091796875,13.436986923217773,-15.17803955078125,-1.683719277381897,1.0135520696640015,0.171749547123909,0.0,0.0,0.0,2.508999483006148,70,255,255,255
582,19.837075869999808,12.637297630310059,13.47924518585205,-15.17767333984375,-1.6675306558609009,0.9844503998756409,0.16240331530570984,0.0,0.0,0.0,2.5114586459567274,70,255,255,255
583,19.865619737999623,12.598395347595215,13.520350456237793,-15.177291870117188,-1.660266637802124,0.9425706267356873,0.1626116782426834,0.0,0.0,0.0,2.5173463624946746,70,255,255,255
584,19.90135911499965,12.554548263549805,13.571840286254883,-15.177261352539062,-1.6551932096481323,0.90840744972229,0.16282770037651062,0.0,0.0,0.0,2.5203370923988335,70,255,255,255
585,19.93414361999976,12.517903327941895,13.61146354675293,-15.176513671875,-1.6365193128585815,0.915060818195343,0.16973479092121124,0.0,0.0,0.0,2.525278854117585,70,255,255,255
586,19.96636553799999,12.479864120483398,13.64999008178711,-15.175567626953125,-1.6487455368041992,0.8943541049957275,0.1490478366613388,0.0,0.0,0.0,2.530633405805298,70,255,255,255
587,20.00381966699979,12.44328784942627,13.688753128051758,-15.174362182617188,-1.6638749837875366,0.8693802356719971,0.1616308093070984,0.0,0.0,0.0,2.5332526247373908,70,255,255,255
588,20.03582579499971,12.40784740447998,13.727486610412598,-15.172286987304688,-1.6916307210922241,0.8283263444900513,0.16085922718048096,0.0,0.0,0.0,2.5381887938178527,70,255,255,255
589,20.068735740999728,12.369970321655273,13.764630317687988,-15.16986083984375,-1.6992998123168945,0.8290184140205383,0.1656152606010437,0.0,0.0,0.0,2.5426413328443562,70,255,255,255
590,20.109246673999678,12.319880485534668,13.809662818908691,-15.166763305664062,-1.7211554050445557,0.8151354193687439,0.1780136674642563,0.0,0.0,0.0,2.5470435381262573,70,255,255,255
591,20.13879686099972,12.283517837524414,13.846923828125,-15.166702270507812,-1.749248743057251,0.7978089451789856,0.16735030710697174,0.0,0.0,0.0,2.548687507467163,70,255,255,255
592,20.173711059999732,12.246156692504883,13.88348388671875,-15.167068481445312,-1.7822386026382446,0.7936264872550964,0.16652141511440277,0.0,0.0,0.0,2.552811945047369,70,255,255,255
593,20.210224217999894,12.205913543701172,13.919134140014648,-15.167404174804688,-1.8167566061019897,0.7905750870704651,0.14084242284297943,0.0,0.0,0.0,2.5558191865502864,70,255,255,255
594,20.243569567999657,12.16286563873291,13.953536033630371,-15.167404174804688,-1.8379757404327393,0.7896612882614136,0.14413073658943176,0.0,0.0,0.0,2.5603308477529896,70,255,255,255
595,20.27968110899974,12.108412742614746,13.998526573181152,-15.17242431640625,-1.8697223663330078,0.7641208171844482,0.16899794340133667,0.0,0.0,0.0,2.5652363904809157,70,255,255,255
596,20.313613747999625,12.061797142028809,14.032331466674805,-15.175125122070312,-1.9017561674118042,0.7432803511619568,0.18167173862457275,0.0,0.0,0.0,2.569284129021727,70,255,255,255
597,20.346042846999808,12.013128280639648,14.06490707397461,-15.17633056640625,-1.9117815494537354,0.7361186742782593,0.19736617803573608,0.0,0.0,0.0,2.571434365285857,70,255,255,255
598,20.381873885000005,11.96496295928955,14.097489356994629,-15.175949096679688,-1.9408435821533203,0.7074581980705261,0.21595583856105804,0.0,0.0,0.0,2.575463195382929,70,255,255,255
599,20.414547747999677,11.921418190002441,14.132984161376953,-15.175048828125,-1.9557737112045288,0.7269335389137268,0.19299247860908508,0.0,0.0,0.0,2.5771641563711625,70,255,255,255
600,20.447353032999672,11.875099182128906,14.167136192321777,-15.173736572265625,-1.9930223226547241,0.7045718431472778,0.1897277534008026,0.0,0.0,0.0,2.581287262370823,70,255,255,255
601,20.482475323000017,11.826483726501465,14.200055122375488,-15.1719970703125,-1.9967676401138306,0.7053084373474121,0.19079239666461945,0.0,0.0,0.0,2.584613284256223,70,255,255,255
602,20.516653745999974,11.769468307495117,14.244685173034668,-15.1693115234375,-2.0224504470825195,0.6828464865684509,0.21149607002735138,0.0,0.0,0.0,2.58632409894049,70,255,255,255
603,20.549031277999802,11.724063873291016,14.280706405639648,-15.166610717773438,-2.054377555847168,0.6614428162574768,0.19549860060214996,0.0,0.0,0.0,2.589874358989675,70,255,255,255
604,20.58327271500002,11.67586612701416,14.314945220947266,-15.1636962890625,-2.07720947265625,0.6467562317848206,0.18775224685668945,0.0,0.0,0.0,2.5932587041029476,70,255,255,255
605,20.618677083999955,11.625332832336426,14.34781265258789,-15.161056518554688,-2.079637289047241,0.6696196794509888,0.1689440906047821,0.0,0.0,0.0,2.596747178814842,70,255,255,255
606,20.650884312000017,11.580013275146484,14.387567520141602,-15.158370971679688,-2.079721212387085,0.6996709704399109,0.16368640959262848,0.0,0.0,0.0,2.5989789078083287,70,255,255,255
607,20.683642382000016,11.534207344055176,14.427850723266602,-15.155029296875,-2.1007347106933594,0.6711282730102539,0.1841300129890442,0.0,0.0,0.0,2.60259441530422,70,255,255,255
608,20.73157173799973,11.473398208618164,14.475273132324219,-15.150711059570312,-2.102029800415039,0.6885907649993896,0.1640024185180664,0.0,0.0,0.0,2.605606983129318,70,255,255,255
609,20.753662839999834,11.422628402709961,14.512055397033691,-15.147506713867188,-2.1067025661468506,0.7027567625045776,0.14652642607688904,0.0,0.0,0.0,2.6070972880753263,70,255,255,255
610,20.78609805899987,11.380498886108398,14.559309005737305,-15.145965576171875,-2.1086883544921875,0.7092265486717224,0.1364913433790207,0.0,0.0,0.0,2.610287488745132,70,255,255,255
611,20.82663985499994,11.335450172424316,14.604081153869629,-15.14471435546875,-2.107621192932129,0.7258015871047974,0.11752288788557053,0.0,0.0,0.0,2.6141008691100165,70,255,255,255
612,20.857828093999615,11.28846263885498,14.64804744720459,-15.143325805664062,-2.0978517532348633,0.7663877010345459,0.1256323754787445,0.0,0.0,0.0,2.6161315294412018,70,255,255,255
613,20.888435747999665,11.241506576538086,14.693248748779297,-15.141021728515625,-2.1011452674865723,0.801535964012146,0.14053687453269958,0.0,0.0,0.0,2.62056409475953,70,255,255,255
614,20.92900910399976,11.187030792236328,14.754854202270508,-15.1363525390625,-2.1163995265960693,0.8018901944160461,0.11656074225902557,0.0,0.0,0.0,2.625401726879659,70,255,255,255
615,20.96210234499995,11.140326499938965,14.801501274108887,-15.1328125,-2.114718198776245,0.8143759369850159,0.12754672765731812,0.0,0.0,0.0,2.6275202715268167,70,255,255,255
616,20.992234746999657,11.091588973999023,14.846861839294434,-15.129074096679688,-2.111806631088257,0.8332732915878296,0.11331088095903397,0.0,0.0,0.0,2.6319355262980593,70,255,255,255
617,21.03042586299989,11.04524040222168,14.893503189086914,-15.1268310546875,-2.1291730403900146,0.796782910823822,0.12701329588890076,0.0,0.0,0.0,2.6362122966926176,70,255,255,255
618,21.061505702999966,11.000600814819336,14.940826416015625,-15.125152587890625,-2.1468546390533447,0.7901663184165955,0.13530418276786804,0.0,0.0,0.0,2.6385976900810015,70,255,255,255
619,21.094940341999973,10.953361511230469,14.985872268676758,-15.122695922851562,-2.1437125205993652,0.7714108824729919,0.14358937740325928,0.0,0.0,0.0,2.642884047855484,70,255,255,255
620,21.131010136999976,10.890950202941895,15.038119316101074,-15.119247436523438,-2.1557090282440186,0.7395409941673279,0.168427512049675,0.0,0.0,0.0,2.6453469392315894,70,255,255,255
621,21.164165777999642,10.843424797058105,15.082715034484863,-15.115585327148438,-2.15921688079834,0.7382020354270935,0.14847739040851593,0.0,0.0,0.0,2.6500721859537166,70,255,255,255
622,21.19614383699991,10.794981002807617,15.126583099365234,-15.112442016601562,-2.167487621307373,0.7344221472740173,0.12209063023328781,0.0,0.0,0.0,2.6544605427979495,70,255,255,255
623,21.23238061899974,10.744248390197754,15.168305397033691,-15.109100341796875,-2.17141056060791,0.7326400279998779,0.14986297488212585,0.0,0.0,0.0,2.6592297316780633,70,255,255,255
624,21.264483478999864,10.691122055053711,15.208189964294434,-15.105422973632812,-2.197305679321289,0.7220944762229919,0.14321069419384003,0.0,0.0,0.0,2.66178610000843,70,255,255,255
625,21.297112514999753,10.642997741699219,15.253064155578613,-15.104217529296875,-2.220003843307495,0.7020952105522156,0.13119354844093323,0.0,0.0,0.0,2.6665243962198995,70,255,255,255
626,21.333980638999947,10.579068183898926,15.306122779846191,-15.102920532226562,-2.2180304527282715,0.7299354076385498,0.11912186443805695,0.0,0.0,0.0,2.6689332254258757,70,255,255,255
627,21.366333718999613,10.525548934936523,15.347222328186035,-15.10186767578125,-2.2271792888641357,0.7401278614997864,0.11833148449659348,0.0,0.0,0.0,2.6737548785794645,70,255,255,255
628,21.398799937999684,10.471968650817871,15.387927055358887,-15.101577758789062,-2.240983009338379,0.7421537041664124,0.09442836791276932,0.0,0.0,0.0,2.678752832997216,70,255,255,255
629,21.442706789999647,10.423280715942383,15.430917739868164,-15.103134155273438,-2.2363319396972656,0.7377810478210449,0.11208287626504898,0.0,0.0,0.0,2.6833473185098207,70,255,255,255
630,21.46841550299996,10.372085571289062,15.471517562866211,-15.103622436523438,-2.2527592182159424,0.7143535017967224,0.12058178335428238,0.0,0.0,0.0,2.686619011908983,70,255,255,255
631,21.501258632999907,10.3184232711792,15.50981330871582,-15.103759765625,-2.2565414905548096,0.6884036064147949,0.11657062917947769,0.0,0.0,0.0,2.6905330597630726,70,255,255,255
632,21.5391719549998,10.252419471740723,15.561867713928223,-15.106414794921875,-2.2623400688171387,0.7088982462882996,0.08066602796316147,0.0,0.0,0.0,2.6955725594938293,70,255,255,255
633,21.573051246999967,10.198888778686523,15.605334281921387,-15.10980224609375,-2.2806875705718994,0.6890875101089478,0.09685435146093369,0.0,0.0,0.0,2.697637041970859,70,255,255,255
634,21.60426409899992,10.142876625061035,15.646252632141113,-15.111801147460938,-2.29099178314209,0.6969804763793945,0.10543300211429596,0.0,0.0,0.0,2.7016245930710348,70,255,255,255
635,21.64053280600001,10.084614753723145,15.684978485107422,-15.11334228515625,-2.2997374534606934,0.6636882424354553,0.1133425161242485,0.0,0.0,0.0,2.70533038172788,70,255,255,255
636,21.673754447999727,10.031368255615234,15.725862503051758,-15.118301391601562,-2.3094418048858643,0.6335620880126953,0.09210771322250366,0.0,0.0,0.0,2.7073344104481647,70,255,255,255
637,21.708386522999717,9.977861404418945,15.765727996826172,-15.123672485351562,-2.3060648441314697,0.6420207023620605,0.09670480340719223,0.0,0.0,0.0,2.711140866594215,70,255,255,255
638,21.742436050999913,9.90805721282959,15.812858581542969,-15.128738403320312,-2.3089969158172607,0.6253278851509094,0.10141916573047638,0.0,0.0,0.0,2.7131275847674137,70,255,255,255
639,21.77946287299983,9.849830627441406,15.84858512878418,-15.132247924804688,-2.3152177333831787,0.6431005001068115,0.08679690212011337,0.0,0.0,0.0,2.7174826520980204,70,255,255,255
640,21.809263530999942,9.797201156616211,15.890830039978027,-15.136795043945312,-2.312160015106201,0.6455345749855042,0.09014715999364853,0.0,0.0,0.0,2.7212377092350324,70,255,255,255
641,21.845410511999944,9.742347717285156,15.93080997467041,-15.140121459960938,-2.314460277557373,0.644872784614563,0.1232563853263855,0.0,0.0,0.0,2.7236281626294874,70,255,255,255
642,21.879874389999713,9.685403823852539,15.96875286102295,-15.141799926757812,-2.3064682483673096,0.6475308537483215,0.1457354724407196,0.0,0.0,0.0,2.727583223164364,70,255,255,255
643,21.911988258999827,9.628782272338867,16.006633758544922,-15.144027709960938,-2.3087010383605957,0.6434770822525024,0.1274924874305725,0.0,0.0,0.0,2.732428312135545,70,255,255,255
644,21.94859054399967,9.56300163269043,16.057790756225586,-15.152099609375,-2.3077304363250732,0.6329742074012756,0.12674875557422638,0.0,0.0,0.0,2.7364752517280295,70,255,255,255
645,21.982707966999897,9.507742881774902,16.095861434936523,-15.156784057617188,-2.308915615081787,0.614882230758667,0.15474660694599152,0.0,0.0,0.0,2.7386324122109937,70,255,255,255
646,22.014114974999757,9.450651168823242,16.13174057006836,-15.15985107421875,-2.3051023483276367,0.6107489466667175,0.15206708014011383,0.0,0.0,0.0,2.7428197003929253,70,255,255,255
647,22.054330598999968,9.396822929382324,16.170129776000977,-15.164413452148438,-2.3113174438476562,0.5729308724403381,0.1611984223127365,0.0,0.0,0.0,2.7455172162610664,70,255,255,255
