idx,t,px,py,pz,vx,vy,vz,ax,ay,az,yaw,mode,ledr,ledg,ledb
0,2.180022420361638e-07,-1.9599993047069768,-1.9980000130873679,-10.004000064921682,2.000006061120075,0.1000003294558046,-0.20000060611200682,0.0003030560037586838,1.515280418917797e-05,-3.030560037586838e-05,2.3038102486584195e-08,70,255,255,255
1,0.020082809001905844,-1.9199988054382748,-1.9959999875959318,-10.008000114848551,2.0000249634351,0.10000127457180535,-0.20000249634350925,0.0009451157512376795,4.72558000379486e-05,-9.451157512213593e-05,2.3038102486584195e-08,70,255,255,255
2,0.040170125001168344,-1.8799976721936826,-1.9939999304056928,-10.01200022817301,2.000056662229609,0.10000285951194925,-0.20000566622296023,0.001584939725455481,7.924700719454114e-05,-0.0001584939725490231,2.3038102486584195e-08,70,255,255,255
3,0.0601515880007355,-1.8399960041433465,-1.9919998464751596,-10.016000394978043,2.000083402516811,0.10000419652666231,-0.20000834025168052,0.0013370143600961448,6.685073565365629e-05,-0.00013370143601354467,2.3038102486584195e-08,70,255,255,255
4,0.08009986899924115,-1.7999940015452962,-1.9899997458172363,-10.020000595237848,2.0001001299025147,0.10000503289616833,-0.20001001299025103,0.000836369285191374,4.181847530050631e-05,-8.363692852525473e-05,2.3038102486584195e-08,70,255,255,255
5,0.10020941200127709,-1.7599632326437666,-1.9880154538928174,-10.024000860588243,2.001538445076474,0.09921459622093988,-0.20001326751975726,0.0719157586979704,-0.039521833761422626,-0.00016272647531084816,0.0006998558694315124,70,255,255,255
6,0.12019127000166918,-1.719905530701608,-1.9860456794580863,-10.028001180893792,2.002885097107936,0.0984887217365511,-0.20001601527746768,0.06733260157311127,-0.036293724219439036,-0.00013738788552125625,0.0013437020742542347,70,255,255,255
7,0.14007289800065337,-1.6798229828147686,-1.984089203160264,-10.032001514465657,2.004127394341975,0.09782381489111903,-0.2000166785932554,0.06211486170196423,-0.03324534227160303,-3.316578938517001e-05,0.0019360405826911306,70,255,255,255
8,0.16010153200113564,-1.6397171201877465,-1.982144831651925,-10.036001869137024,2.005293131351102,0.09721857541694907,-0.2000177335683544,0.058286850456347405,-0.030261973708498188,-5.2748754950066035e-05,0.0024809920104530677,70,255,255,255
9,0.1801097210009175,-1.599589484880357,-1.9802114274179445,-10.040002245694929,2.0063817653694844,0.09667021169902029,-0.2000188278952345,0.054431700919133075,-0.02741818589643928,-5.471634400613934e-05,0.002982347323994044,70,255,255,255
10,0.20014818699928583,-1.5594132010079622,-1.978305048457297,-10.044002653785286,2.0088141936197372,0.09531894803237312,-0.2000204045178894,0.12162141251264114,-0.06756318333235894,-7.88311327454827e-05,0.004141282173765329,70,255,255,255
11,0.22018956000101753,-1.519191337145053,-1.976423274937919,-10.048003104102566,2.0110931931454603,0.09408867596890949,-0.20002251586398417,0.11394997628615755,-0.06151360317318172,-0.00010556730473751386,0.005207502235554887,70,255,255,255
12,0.2401992170016456,-1.4789269521708388,-1.9745637989393516,-10.052003596482885,2.013219248710708,0.0929737999283639,-0.2000246190159409,0.10630277826237577,-0.05574380202727988,-0.0001051575978360253,0.006188424692401288,70,255,255,255
13,0.2601719000012963,-1.438623107782358,-1.9727244224404064,-10.056004118873211,2.0151922194240477,0.09196882494726416,-0.20002611951634905,0.09864853566698217,-0.05024874905498679,-7.502502040682146e-05,0.00709087335269999,70,255,255,255
14,0.28010374500081525,-1.3982828757914894,-1.9709030549840407,-10.06000464682752,2.0170115995434315,0.0910683728182838,-0.2000263977154989,0.09096900596919077,-0.0450226064490184,-1.3909957493091207e-05,0.007921126120174801,70,255,255,255
15,0.30011261999970884,-1.357880335971398,-1.969116192943275,-10.064005191322767,2.0201269910045676,0.08934310203828327,-0.20002722476235188,0.1557695730567974,-0.08626353900002641,-4.1352342648182105e-05,0.009383045295676067,70,255,255,255
16,0.32018746299945633,-1.3174196313579503,-1.9673604488464809,-10.068005774445062,2.0230352306723876,0.08778720483970989,-0.20002915611476996,0.14541198339100347,-0.07779485992866875,-9.656762090340387e-05,0.010728010937137218,70,255,255,255
17,0.3401663020013075,-1.2769050566813231,-1.96563260865312,-10.072006386172268,2.0257287338313588,0.0863920096680446,-0.20003058636028886,0.13467515794856189,-0.06975975858326475,-7.151227594481835e-05,0.011965379327281487,70,255,255,255
18,0.3601576170003682,-1.236340695256793,-1.9639296039234864,-10.076007021030126,2.028218071226511,0.08515023648167674,-0.20003174289288525,0.12446686975762544,-0.062088659318392914,-5.782662981956843e-05,0.013103758246214209,70,255,255,255
19,0.38018051800099784,-1.195730363984311,-1.9622485040167474,-10.080007683943345,2.0305165636240927,0.08405499533694948,-0.2000331456609073,0.11492461987908476,-0.05476205723636368,-7.013840110239866e-05,0.014151066851632312,70,255,255,255
20,0.4001064360018063,-1.1550490291795816,-1.9606063990053022,-10.08400837064858,2.034066740236474,0.08210525057226671,-0.2000343352617569,0.17750883061905842,-0.09748723823413846,-5.9480042480269946e-05,0.015813163339578086,70,255,255,255
21,0.4201859519998834,-1.114301786739033,-1.9589990779902404,-10.088009104064701,2.0373621220274263,0.08036605075309175,-0.20003667080610602,0.1647690895476135,-0.08695999095874773,-0.00011677721745531611,0.017342292108488207,70,255,255,255
22,0.4401056740025524,-1.073494043598311,-1.9574225628721085,-10.092009854526632,2.0403871570361045,0.0788257559066025,-0.20003752309654718,0.15125175043391437,-0.07701474232446259,-4.261452205778227e-05,0.018749090575885502,70,255,255,255
23,0.460176185999444,-1.0326304965500608,-1.9558730311653063,-10.096010642374722,2.043177352412507,0.07747658534010493,-0.20003939240455765,0.1395097688201239,-0.0674585283248782,-9.346540052318497e-05,0.02004334516589101,70,255,255,255
24,0.48009012500187964,-0.9917161508992037,-1.954346881638202,-10.100011436565728,2.045717282542855,0.07630747635522296,-0.2000397095502792,0.12699650651740058,-0.05845544924409882,-1.5857286077586297e-05,0.021234059388696103,70,255,255,255
25,0.5001082679991669,-0.950726857394832,-1.9528618807764926,-10.104012204680688,2.049464675218588,0.07425004308546353,-0.2000384057479767,0.18736963378664573,-0.10287166348797172,6.519011512404194e-05,0.023026863055564176,70,255,255,255
26,0.5201551050013222,-0.9096685458993565,-1.9514131240210801,-10.10801296204302,2.052915574773772,0.07243783777062787,-0.20003786811665014,0.17254497775920274,-0.09061026574178305,2.6881566328018636e-05,0.024676242429082798,70,255,255,255
27,0.5401013830014563,-0.8685472227010359,-1.949995967232007,-10.112013690895065,2.056066159916029,0.070857839453658,-0.20003644260221862,0.15752925711282106,-0.07899991584849303,7.12757215763915e-05,0.026193671452719912,70,255,255,255
28,0.5601977170008468,-0.8273681543503602,-1.9486059583413358,-10.116014422608155,2.0589534175337865,0.06950044453356324,-0.20003658565447974,0.1443628808878925,-0.06786974600473777,-7.152613056476964e-06,0.027589706154466077,70,255,255,255
29,0.5801366380001127,-0.786136887518634,-1.947238906750826,-10.120015136294606,2.0615633415863073,0.0683525795254849,-0.2000356843225462,0.13049620262604433,-0.05739325040391721,4.506659667707913e-05,0.028874058080072557,70,255,255,255
30,0.6001367820026644,-0.7448293563266749,-1.9459133834991045,-10.124015825150758,2.065376559597953,0.06627616258607606,-0.20003444280762725,0.19066090058227436,-0.1038208469704417,6.207574594810361e-05,0.030753844495111485,70,255,255,255
31,0.6201200310024433,-0.7034522822892048,-1.9446239015895666,-10.12801648420394,2.0688537018735076,0.06447409547689517,-0.20003295265910767,0.17385711377773205,-0.09010335545904452,7.450742597947535e-05,0.03248324799694729,70,255,255,255
32,0.6401099460017576,-0.6620120735674163,-1.9433652438726199,-10.132017110960645,2.0720104360894216,0.06293288584733142,-0.20003133783523377,0.15783671079570238,-0.07706048147818767,8.074119369472221e-05,0.03407429921863621,70,255,255,255
33,0.660205964002671,-0.6205145153187206,-1.9421324297443319,-10.13601773708161,2.074877912434784,0.061640706414398,-0.2000313060482706,0.14337381726811316,-0.06460897164667129,1.5893481585815827e-06,0.03553806634259005,70,255,255,255
34,0.6801545929993154,-0.5789656089951407,-1.9409207738219598,-10.140018345164467,2.077445316178992,0.06058279611860668,-0.20003040414279424,0.12837018721039817,-0.05289551478956589,4.5095273818296366e-05,0.03688473209662757,70,255,255,255
35,0.7001789060013834,-0.5373413695712619,-1.93974972756188,-10.144018942199208,2.0812119711939427,0.058552313003987624,-0.20002985173703913,0.18833275074755162,-0.1015241557309528,2.7620287755908413e-05,0.038822070747641255,70,255,255,255
36,0.7201311659991916,-0.49564906858418717,-1.9386133004970685,-10.148019512616665,2.0846150493537356,0.05682135324057842,-0.20002852087281492,0.1701539079896488,-0.08654798817046006,6.654321121030149e-05,0.04060442230657384,70,255,255,255
37,0.7401797940001416,-0.4538953417996846,-1.937505779983073,-10.152020072662166,2.0876863392251273,0.05537602569976858,-0.2000280022750628,0.15356449356957103,-0.07226637704049232,2.5929887606412905e-05,0.04224418574079181,70,255,255,255
38,0.7600816869999107,-0.41208699467085586,-1.9364217897995677,-10.156020590667717,2.090417356441438,0.05419950917526437,-0.20002590027753211,0.13655086081553947,-0.05882582622521021,0.0001050998765333433,0.04375276810027235,70,255,255,255
39,0.7801091140026983,-0.37023011000735767,-1.9353562045022294,-10.160021077103547,2.09284423317491,0.053279264866915116,-0.20002432179145374,0.12134383667359261,-0.04601221541746292,7.892430391912009e-05,0.04514066387099445,70,255,255,255
40,0.8001925720018335,-0.32830069813053603,-1.9343294067467347,-10.16402155152554,2.0964705938410813,0.05133988777473404,-0.20002372109965813,0.1813180333085691,-0.0969688546090538,3.003458978056983e-05,0.04711557473917485,70,255,255,255
41,0.8201289300013741,-0.28630640138659474,-1.9333349699785407,-10.168021993530012,2.0997148371970633,0.049721838409699806,-0.20002210022360342,0.16221216779909375,-0.0809024682517116,8.104380273529777e-05,0.048932492737900804,70,255,255,255
42,0.8401803130000189,-0.24425413931675566,-1.9323667683286705,-10.172022420797367,2.102613103491954,0.048410082493511676,-0.20002136336773257,0.14491331474454117,-0.06558779580940666,3.684279354207454e-05,0.0506040572967287,70,255,255,255
43,0.8601593530001992,-0.2021507405318838,-1.9314190223407208,-10.176022826821004,2.105169939243593,0.047387299397478225,-0.20002030118182848,0.12784178758195486,-0.051139154801672526,5.310929520502272e-05,0.05214189669085034,70,255,255,255
44,0.8801242049994471,-0.16000275114653933,-1.9304862706831192,-10.180023200978548,2.1073994692672238,0.04663758288007771,-0.2000187078771756,0.11147650118153307,-0.03748582587002569,7.966523264393843e-05,0.053556708933442256,70,255,255,255
45,0.9001441979999072,-0.11778608844127188,-1.9295899065360484,-10.184023571756113,2.110833135263373,0.044818207353539696,-0.20001853887823648,0.17168329980745267,-0.09096877632690048,8.449946956701204e-06,0.055556583424258295,70,255,255,255
46,0.9201295670027321,-0.07550846629479621,-1.9287231047178357,-10.188023934081334,2.1138811073237838,0.04334009091063772,-0.20001811626107377,0.15239860302053448,-0.07390582214509855,2.1130858135209873e-05,0.05739646795580907,70,255,255,255
47,0.9401568520006549,-0.033177099157025824,-1.9278793895143422,-10.192024296612832,2.116568356888519,0.04218576017467033,-0.20001812657488982,0.13436247823678193,-0.057716536798369744,-5.156908024495088e-07,0.05908916172483576,70,255,255,255
48,0.9601731600014318,0.009201110270743641,-1.9270526401530097,-10.19602466397674,2.118910471388473,0.041337468066622175,-0.20001836819536956,0.11710572499770944,-0.04241460540240777,-1.2081023986393324e-05,0.06064643999234033,70,255,255,255
49,0.9804001510019589,0.051620272687229504,-1.9262370119087346,-10.20002510793245,2.120958120824293,0.040781412213749584,-0.2000221977855163,0.10238247179098592,-0.02780279264362956,-0.00019147950733786057,0.062079135998444536,70,255,255,255
50,1.0001597240006959,0.09410341545241488,-1.9254549774167882,-10.204025544206766,2.124157138259269,0.0391017245973231,-0.20002181371578856,0.1599508717488034,-0.08398438082132431,1.920348638698166e-05,0.06409541211335879,70,255,255,255
51,1.0201877280014742,0.136642816329756,-1.9246993621617088,-10.208025981523813,2.1269700438670562,0.037780762753970853,-0.2000218658523117,0.1406452803893602,-0.06604809216761215,-2.606826155743258e-06,0.06595038613907989,70,255,255,255
52,1.0401362930024334,0.17923087219912284,-1.9239634052533607,-10.212026402662119,2.1294027934683424,0.03679784541740463,-0.200021056915295,0.1216374800643083,-0.049145866828311346,4.044685083365307e-05,0.0676569622427433,70,255,255,255
53,1.0601184500010277,0.2218604657739984,-1.9232407092502362,-10.216026802208827,2.1314796787437773,0.036134800156230405,-0.2000199773354125,0.10384426377173683,-0.03315226305871111,5.397899412654117e-05,0.06922701225811363,70,255,255,255
54,1.0808947709992935,0.2645273816695268,-1.9225249851604316,-10.220027429242878,2.1333457947764183,0.03578620449022916,-0.2000313517025585,0.09330580163205682,-0.017429783300062507,-0.0005687183573010457,0.07067145827225435,70,255,255,255
55,1.1001301069991314,0.3072226665562354,-1.9218108033828123,-10.224028024419297,2.134764244335433,0.03570908888096389,-0.20002975882094903,0.07092247795072315,-0.003855780463263403,7.964408047320126e-05,0.0720003486052638,70,255,255,255
56,1.1201307020019158,0.3499070424883958,-1.9210844256278246,-10.22802222357918,2.1342187966080193,0.036318887749392126,-0.19970995799411537,-0.027272386370671864,0.030489943421411758,0.015990041341682637,0.0739216136521921,70,255,255,255
57,1.1401516650003032,0.39257693608338423,-1.9203406967871084,-10.232010426473021,2.1334946797494196,0.037186442035810015,-0.19941014469207533,-0.03620584292997342,0.043377714320894434,0.014990665102002448,0.07568917749536615,70,255,255,255
58,1.1601426779998292,0.4352289156932775,-1.919574809365474,-10.235993008876314,2.1325989804946612,0.03829437108171158,-0.1991291201646428,-0.04478496273792021,0.05539645229507839,0.014051226371626008,0.07731533623108626,70,255,255,255
59,1.1801812890007568,0.4778599365450084,-1.918782263012653,-10.239970348242165,2.1315510425865454,0.03962731764105938,-0.19886696829260767,-0.05239689540579695,0.06664732796739004,0.013107593601755951,0.07881140226794878,70,255,255,255
60,1.2001641740025661,0.5205611485112523,-1.9179400973296128,-10.243949150099118,2.135060598312196,0.0421082841520115,-0.1989400928476469,0.17547778628253563,0.12404832554760603,-0.0036562277519615327,0.08088527935998127,70,255,255,255
61,1.220137339001667,0.5633239323139896,-1.917044966139182,-10.247929352027533,2.1381391901368643,0.044756559521538716,-0.19901009642081322,0.15392959123341488,0.13241376847636055,-0.0035001786583147565,0.08279324628465116,70,255,255,255
62,1.240292168000451,0.6061406686417423,-1.9160937390105894,-10.25191095124532,2.140836816387639,0.04756135642963145,-0.19907996088929683,0.1348813125387336,0.14023984540463652,-0.0034932234241805415,0.08454857585534747,70,255,255,255
63,1.2601370480006153,0.6490031171808858,-1.9150836821300008,-10.255893843717965,2.143122426957173,0.05050284402943191,-0.1991446236322512,0.11428052847671255,0.14707437999002337,-0.0032331371477182513,0.08616347906038808,70,255,255,255
64,1.2800970810021681,0.6919038273866788,-1.914012275614882,-10.259877966432782,2.1450355102896523,0.05357032575593741,-0.19920613574084142,0.09565416662395876,0.15337408632527505,-0.003075605429511713,0.08764919000902545,70,255,255,255
65,1.3000711200002115,0.7348667365403071,-1.9128683509237487,-10.263863279656016,2.1481454576814176,0.05719623455666725,-0.199265661161719,0.15549736958826932,0.18129544003649212,-0.0029762710438788476,0.08971389669045156,70,255,255,255
66,1.3201768700018874,0.7778837104502602,-1.911649724577808,-10.267849769296006,2.150848695497655,0.06093131729703708,-0.19932448199951205,0.13516189081186747,0.18675413701849142,-0.0029410418896516632,0.09161342683736358,70,255,255,255
67,1.3401676790017518,0.8209466486617022,-1.9103545114499976,-10.271837383443204,2.1531469105721,0.0647606563905207,-0.19938070735983604,0.11491075372225845,0.19146695467418118,-0.0028112680161991588,0.09336099457252264,70,255,255,255
68,1.3600770930024737,0.8640476027402078,-1.9089810959235185,-10.27582604545702,2.1550477039252787,0.06867077632395661,-0.1994331006907764,0.09503966765893024,0.19550599667179602,-0.0026196665470189506,0.09496875688886897,70,255,255,255
69,1.3801151840016246,0.9071794520984248,-1.9075280309073022,-10.279815722795355,2.1565924679108504,0.07265325081081676,-0.19948386691674155,0.07723819927857889,0.1991237243430075,-0.0025383112982564904,0.09644789821990757,70,255,255,255
70,1.400125479001872,0.9503662214294789,-1.9059881688150293,-10.283806358432917,2.1593384665527084,0.07699310461363865,-0.19953178187809834,0.13729993209289626,0.21699269014109412,-0.002395748067838571,0.09850687219896241,70,255,255,255
71,1.4201107580011012,0.9935994695968678,-1.9043602269643487,-10.287797905144012,2.1616624083694473,0.08139709253403504,-0.19957733555475646,0.11619709083693897,0.22019939601981953,-0.0022776838329061078,0.10040112825969286,70,255,255,255
72,1.4401299970013497,1.0368712962381446,-1.902643125345885,-10.291790327945971,2.1635913320638305,0.0858550809231767,-0.19962114009793147,0.09644618471915445,0.22289941945708303,-0.0021902271587499744,0.1021438438355649,70,255,255,255
73,1.4600838860023941,1.080174004167053,-1.900836020686136,-10.295783571641339,2.1651353964454154,0.09035523298745045,-0.1996621847683759,0.07720321907925376,0.22500760321368718,-0.002052233522221669,0.10374714216536714,70,255,255,255
74,1.4800826710015826,1.1235004522856462,-1.8989382441974882,-10.299777597397798,2.166322405929663,0.09488882443239062,-0.19970128782295127,0.059350474212373605,0.22667957224700885,-0.0019551527287683113,0.10522217662878522,70,255,255,255
75,1.500167207999766,1.166875376583513,-1.896946258093313,-10.303772392423912,2.1687462148933347,0.09959930520876246,-0.19973975130572902,0.12119044818358882,0.23552403881859196,-0.0019231741388882062,0.10727757728899996,70,255,255,255
76,1.5201466550024634,1.2102904028414287,-1.8948593108954594,-10.307767912314501,2.1707513128957885,0.10434735989267147,-0.19977599452949404,0.10025490012268445,0.23740273419544966,-0.0018121611882508382,0.10916854589639752,70,255,255,255
77,1.5402458160024253,1.2537379782149778,-1.8926767906829165,-10.311764152477393,2.1723787686774556,0.10912601062714467,-0.19981200814458555,0.0813727890833551,0.23893253672366,-0.0018006807545749848,0.11090823701520329,70,255,255,255
78,1.5601569930004189,1.297210349403018,-1.8903983654094116,-10.315761047288627,2.173618559402018,0.11392126367524354,-0.19984474056170803,0.061989536228106434,0.23976265240494343,-0.0016366208561247042,0.1125087528445046,70,255,255,255
79,1.5801722530013649,1.3407005216947823,-1.8880238264339833,-10.319758567320806,2.1745086145882144,0.11872694877142113,-0.19987600160891966,0.04450275930982661,0.24028425480887994,-0.0015630523605813518,0.11398122740746179,70,255,255,255
80,1.6001296970025578,1.3842331931494098,-1.8855530601183896,-10.32375667107342,2.17663357273138,0.12353831577968266,-0.19990518763071774,0.10624790715826471,0.24056835041307645,-0.0014593010899042747,0.11603389737139193,70,255,255,255
81,1.620134577002318,1.4278001771588007,-1.8829855498577468,-10.32775532811884,2.1783492004695466,0.12837551303214056,-0.19993285227099497,0.08578138690834036,0.24185986262289527,-0.0013832320138610354,0.11792235373820763,70,255,255,255
82,1.6401710739992268,1.4713938245856442,-1.880320948644336,-10.331754519087264,2.1796823713421776,0.13323006067054297,-0.19995954842117247,0.06665854363154633,0.24272738192012022,-0.0013348075088747968,0.11965973359567808,70,255,255,255
83,1.6601540920019033,1.5150067314466187,-1.8775591130202716,-10.335754207803522,2.1806453430487314,0.13809178120322504,-0.19998443581290828,0.04814858532769195,0.24308602663410406,-0.001244369586790528,0.12125812306455092,70,255,255,255
84,1.6800779040022462,1.5586317177231002,-1.8747000940265504,-10.339754340520638,2.1812493138240687,0.14295094968605837,-0.20000663585584474,0.030198538766875505,0.24295842414166602,-0.0011100021468224697,0.1227286413759139,70,255,255,255
85,1.7001932540006237,1.6022943909570704,-1.8717468186382935,-10.343754936343334,2.1831336616985144,0.1476637694128416,-0.20002979113481442,0.09421739372229121,0.23564098633916086,-0.0011577639484844082,0.1247802909686258,70,255,255,255
86,1.7200754120021884,1.6459862525595108,-1.8686988500347659,-10.347755928822519,2.1845930801220264,0.15239843017637628,-0.2000496239592553,0.07297092117559068,0.23673303817673408,-0.000991641222043177,0.12666780859392077,70,255,255,255
87,1.7400847730023088,1.68969967420495,-1.8655558599052664,-10.351757295566356,2.1856710822719516,0.15714950647497355,-0.20006833719189693,0.0539001074962564,0.23755381492986405,-0.0009356616320812527,0.12840432480919212,70,255,255,255
88,1.7601136770026642,1.733427513308976,-1.8623176810392605,-10.355759021181457,2.186391955201303,0.16190894330028918,-0.20008628075507873,0.0360436464675673,0.23797184126578075,-0.0008971781590900174,0.1300019197272418,70,255,255,255
89,1.7801333669995074,1.7771630032894974,-1.8589843135739612,-10.359761087675361,2.186774499026066,0.16666837326496317,-0.20010332469521097,0.01912719123815476,0.23797149823369923,-0.0008521970066122098,0.13147170705184746,70,255,255,255
90,1.8001772730021912,1.8209314135211963,-1.8555616937546011,-10.36376345997855,2.1884205115849453,0.17113099096800716,-0.20011861515946627,0.08230062794395776,0.22313088515219948,-0.0007645232127647672,0.13352137824651214,70,255,255,255
91,1.8201771669992013,1.8647247389934218,-1.8520491320244135,-10.367766115912861,2.1896662736112775,0.17562808650938155,-0.20013279671556336,0.062288101316605005,0.22485477706872037,-0.0007090778048537416,0.13540707574560362,70,255,255,255
92,1.84012888000143,1.908535260952594,-1.8484461518616386,-10.371769018759093,2.190526097958608,0.18014900813874635,-0.20014514231158537,0.04299121736653522,0.22604608146823923,-0.0006172798011007952,0.13714191744476778,70,255,255,255
93,1.8601767489999474,1.9523560039551566,-1.8447523946148894,-10.375772164376055,2.191037150128128,0.1846878623374672,-0.2001572808481238,0.02555260847599472,0.22694270993604249,-0.0006069268269203731,0.13873797180799882,70,255,255,255
94,1.880140843000845,1.996180126650505,-1.8409677166535774,-10.379775521674597,2.191206134767415,0.1892338980656035,-0.20016786492712724,0.008449231964366088,0.22730178640681564,-0.000529203950172974,0.1402063418221714,70,255,255,255
95,1.90016961800211,2.0400335654847,-1.8371007518344202,-10.383779092430148,2.192671941709763,0.19334824095785946,-0.20017853777750366,0.07329034711737581,0.20571714461279833,-0.0005336425188215976,0.14225555262280581,70,255,255,255
96,1.920173356000305,2.083908407948871,-1.8331504611250962,-10.387782859318236,2.193742123208545,0.19751453546620792,-0.20018834440438457,0.05350907493911228,0.20831472541742313,-0.0004903313440454693,0.1441408265593895,70,255,255,255
97,1.9402132040013385,2.1277972975908797,-1.8291159791997527,-10.391786817295248,2.194444482100432,0.20172409626717605,-0.2001978988506222,0.035117944594349915,0.21047804004840653,-0.00047772231188134007,0.14587527858104649,70,255,255,255
98,1.9601529850006045,2.171692976655826,-1.824996688204348,-10.395790929293007,2.1947839532473274,0.2059645497702367,-0.20020559988791276,0.01697355734478423,0.21202267515303308,-0.00038505186452761353,0.14747097444097093,70,255,255,255
99,1.9801721799994993,2.215588866115827,-1.8207920947624574,-10.399795185633469,2.194794473000037,0.21022967209453366,-0.2002128170231275,0.00052598763546996,0.2132561162148483,-0.0003608567607368274,0.1489390146321014,70,255,255,255
100,2.000161443000252,2.259510959398471,-1.8165134277167836,-10.40379956969745,2.1961046641322133,0.21393335228369142,-0.20021920319904643,0.06550955660881774,0.18518400945788782,-0.00031930879594749273,0.15098773613893196,70,255,255,255
101,2.0201220470007684,2.3034512828579494,-1.8121592014584298,-10.407804054200316,2.1970161729739304,0.21771131291769322,-0.2002242251433,0.045575442085843854,0.18889803170008945,-0.0002510972126780475,0.15287255992521606,70,255,255,255
102,2.0404276129993377,2.3474034159773125,-1.8077279196149831,-10.411808723721649,2.197606655968157,0.221564092172333,-0.20023347606664618,0.02952414971133388,0.19263896273198844,-0.0004625461673101461,0.1546065978085974,70,255,255,255
103,2.060113520001323,2.3913593216663824,-1.8032186955013993,-10.415813459179347,2.1977952844534987,0.22546120567918917,-0.20023677288491679,0.009431424267085209,0.1948556753428089,-0.00016484091353050068,0.15620191266130826,70,255,255,255
104,2.0801186110002163,2.435312460413071,-1.7986306160459278,-10.419818250669616,2.197656937334417,0.22940397277357386,-0.20023957451345756,-0.006917355954074278,0.1971383547192339,-0.00014008142703811344,0.15766960232580227,70,255,255,255
105,2.1001961350011698,2.4792891387288263,-1.7939454683333473,-10.423823089932437,2.1988339157877688,0.2342573856290199,-0.20024196314108458,0.058848922667588344,0.24267064277230233,-0.00011943138135120379,0.1597177698895464,70,255,255,255
106,2.120115377001639,2.523281323128601,-1.7891631860791304,-10.427827940516078,2.199609219988734,0.23911411271085128,-0.20024252918203575,0.03876521004826561,0.24283635409156934,-2.8302047558131926e-05,0.16160208404819096,70,255,255,255
107,2.1401736510015326,2.567281882229114,-1.7842837689554019,-10.431832812628034,2.2000279550256425,0.2439708561864239,-0.20024360559783694,0.0209367518454191,0.24283717377863068,-5.3820790059860846e-05,0.16333565307414397,70,255,255,255
108,2.1602218660009385,2.6112840669417583,-1.7793073788298464,-10.435837712610029,2.2001092356322003,0.24881950627777324,-0.20024499909972404,0.0040640303278887124,0.242432504567468,-6.96750943551816e-05,0.16493053657802076,70,255,255,255
109,2.180143276000308,2.6552811247462635,-1.7742344082334884,-10.439842605801088,2.199852890225252,0.2536485298178986,-0.2002446595529282,-0.012817270347404097,0.24145117700626628,1.6977339792556556e-05,0.1663978294015874,70,255,255,255
110,2.2001236130017787,2.699299965348595,-1.769050680007839,-10.443847518399721,2.200942030116576,0.25918641128247183,-0.20024562993163114,0.05445699456618991,0.2768940732286611,-4.8518935147401354e-05,0.16844623495272293,70,255,255,255
111,2.2201463080018584,2.7433329242599203,-1.763757036373782,-10.447852448643715,2.2016479455662465,0.26468218170285157,-0.20024651219972256,0.035295772483529664,0.2747885210189869,-4.411340457083357e-05,0.1703307680597676,70,255,255,255
112,2.240180369000882,2.787372810642638,-1.7583544368812432,-10.45185739848548,2.2019943191358746,0.2701299746269416,-0.20024749208819334,0.017318678481405225,0.27238964620450257,-4.899442353956118e-05,0.1720645385182487,70,255,255,255
113,2.2601545630022883,2.8314126624510565,-1.7528439999865546,-10.455862350571481,2.2019925904209328,0.2755218447344265,-0.20024760430003724,-8.64357470979904e-05,0.2695935053742442,-5.6105921944771264e-06,0.17365960734005131,70,255,255,255
114,2.2800932829995872,2.875445821900732,-1.7472269745543807,-10.459867277234126,2.2016579724837815,0.28085127160869167,-0.20024633313224718,-0.016730896857555688,0.2664713437132596,6.355838950317105e-05,0.17512707065610972,70,255,255,255
115,2.3000719340016076,2.919498964587107,-1.7414930349803621,-10.463872163066878,2.2026571343187418,0.28669697870092686,-0.2002442916375391,0.04995809174800847,0.29228535461175964,0.00010207473540499445,0.1771748594396688,70,255,255,255
116,2.32018908900136,2.9635647813836803,-1.7356435633370104,-10.467877040191796,2.2032908398286546,0.2924735821675838,-0.20024385624588942,0.03168527549564759,0.28883017333284755,2.176958248378824e-05,0.17905882512054314,70,255,255,255
117,2.3400969659996917,3.00763571174336,-1.7296801976612826,-10.471881871848591,2.20354651798398,0.29816828378638827,-0.2002415828397186,0.012783907766269031,0.28473508094022426,0.0001136703085409807,0.18079207354694754,70,255,255,255
118,2.3601647579998826,3.051705152298185,-1.7236045422341462,-10.47588667472814,2.203472027741242,0.30378277135681697,-0.20024014397737744,-0.0037245121368987277,0.2807243785214366,7.194311705771561e-05,0.18238666209923957,70,255,255,255
119,2.3801464560019667,3.095766622765165,-1.7174183481121472,-10.479891437015828,2.2030735233490155,0.3093097060999524,-0.20023811438444622,-0.019925219611311107,0.2763467371567703,0.00010147964656115338,0.18385368356734827,70,255,255,255
120,2.4001613710024685,3.1398470448303493,-1.7111147008660472,-10.483896143572629,2.204021103259217,0.31518236230500174,-0.20023532784007148,0.047378995510090505,0.29363281025246735,0.00013932721873738396,0.1859017780987219,70,255,255,255
121,2.420122108000214,3.183938627080934,-1.7046954025489705,-10.487900777647745,2.2045791125292316,0.3209649158538364,-0.20023170375577906,0.027900463500714068,0.2891276774417321,0.00018120421462097802,0.18778602506758565,70,255,255,255
122,2.4401663600001484,3.2280342949805934,-1.6981622679883435,-10.491905350336197,2.2047833949829876,0.32665672803135326,-0.2002286344225339,0.010214122687806526,0.284590608875842,0.00015346666225787842,0.18951953227894033,70,255,255,255
123,2.4601833209999313,3.2721273045969435,-1.6915172062209614,-10.4959098634324,2.2046504808175107,0.3322530883691097,-0.2002256548102039,-0.0066457082738367035,0.27981801688782354,0.00014898061650048255,0.1911143589133866,70,255,255,255
124,2.4801835550024407,3.3162112673604045,-1.684762203672218,-10.499914313365819,2.204198138173056,0.33775012743716454,-0.20022249667095746,-0.022617132222731318,0.27485195340274077,0.0001579069623226792,0.1925815994170772,70,255,255,255
125,2.5001326609999523,3.3603134972435256,-1.6778934521914515,-10.503918704353849,2.205111494156055,0.3434375740383294,-0.20021954940143927,0.04566779914994523,0.28437233005824486,0.00014736347590973975,0.19462991191617002,70,255,255,255
126,2.520162151999102,3.4044264290225112,-1.6709127417030205,-10.50792304234475,2.2056465889492882,0.34903552442155145,-0.20021689954503621,0.026754739661663418,0.2798975191611026,0.0001324928201523745,0.1965143594153354,70,255,255,255
127,2.540245572999993,3.448543106839966,-1.6638218907224067,-10.511927350272286,2.2058338908727513,0.35454254903068577,-0.20021539637675945,0.009365096173145737,0.27535123045671567,7.515841383817778e-05,0.19824805111456756,70,255,255,255
128,2.560107589000836,3.492656277700277,-1.6566229620186599,-10.515931578892694,2.205658543015545,0.3599464351873447,-0.20021143102038996,-0.008767392860317802,0.2701943078329467,0.00019826781847465114,0.19984304747786114,70,255,255,255
129,2.5812899570009904,3.5367633545250965,-1.6493170111437623,-10.51993610455637,2.205353841240971,0.3652975437448794,-0.20022628318377247,-0.01523508872870849,0.2675554278767326,-0.0007426081691250808,0.20131044413209123,70,255,255,255
130,2.6001737890001095,3.5808877395394885,-1.6419041743557823,-10.523940523828134,2.2062192507196037,0.3706418393989959,-0.20022096358819663,0.043270473931650955,0.2672147827058277,0.00026597977879191936,0.2033584054189845,70,255,255,255
131,2.620172910999827,3.625021792426455,-1.6343860848206133,-10.527944835739707,2.206702644348322,0.37590447675845257,-0.20021559557860974,0.024169681435922907,0.26313186797283156,0.0002684004793440664,0.20524252980292632,70,255,255,255
132,2.6401969680009643,3.6691583956114258,-1.6267644253711002,-10.53194904753188,2.2068301592485424,0.38108297247565237,-0.20021058960869045,0.006375745011000689,0.2589247858599894,0.0002502984959638632,0.20697592423615277,70,255,255,255
133,2.660145993999322,3.7132906143946194,-1.6190410060124956,-10.53595314216127,2.2066109391596886,0.38617096793023803,-0.20020473146956616,-0.010961004442681777,0.2543997727292834,0.00029290695621428386,0.20857064711472112,70,255,255,255
134,2.680114744001912,3.7574120002900977,-1.6112176745539784,-10.53995711010624,2.206069294773925,0.39116657292586215,-0.20019839724847951,-0.027082219288173004,0.24978024978120655,0.00031671105433186963,0.210037792163004,70,255,255,255
135,2.700112716000149,3.8015502734791546,-1.6032962649596687,-10.54396096182074,2.2069136594528493,0.3960704797154849,-0.20019258572505505,0.042218233946218486,0.24519533948113853,0.00029057617122255075,0.21208548584414003,70,255,255,255
136,2.7201772879998316,3.845698006117472,-1.5952779993149726,-10.547964718778898,2.207386631915863,0.4009132822348054,-0.20018784790787095,0.023648623150680503,0.2421401259660224,0.00023689085920564068,0.21396936403078515,70,255,255,255
137,2.7402033120015403,3.889848077542678,-1.5871642146573743,-10.55196838898264,2.2075035712603035,0.40568923287991737,-0.2001835101870926,0.0058469672220407,0.23879753225559996,0.00021688603891764635,0.21570253196249867,70,255,255,255
138,2.7601769530010642,3.9339936229644774,-1.5789563658942314,-10.555971963330025,2.207277271089985,0.41039243815714943,-0.2001787173692539,-0.011315008515913494,0.235160263861604,0.0002396408919339288,0.2172970464596751,70,255,255,255
139,2.780130592000205,3.9781281327151974,-1.5706559884238216,-10.559975427017958,2.2067254875360045,0.4150188735204865,-0.2001731843966811,-0.02758917769903002,0.2313217681668539,0.00027664862863990836,0.21876399979707742,70,255,255,255
140,2.8001404759997968,4.0222793997444555,-1.562267531665623,-10.563978779096107,2.2075633514629187,0.41942283790993756,-0.20016760390741198,0.04189319634572142,0.2201982194725537,0.00027902446345692833,0.2208118086858727,70,255,255,255
141,2.8200930310013064,4.066439624764298,-1.5537918232832393,-10.567982005715333,2.208011250992119,0.4237854191191842,-0.2001613309612712,0.022394976460023308,0.21812906046233166,0.000313647307038617,0.22269579286356433,70,255,255,255
142,2.8401370710016636,4.110601754863259,-1.5452296989072931,-10.57198512333338,2.208106504948037,0.4281062187973029,-0.20015588090236652,0.004762697795909876,0.2160399839059337,0.00027250294523428753,0.22442905830704066,70,255,255,255
143,2.860142760000599,4.154759034533229,-1.5365821166608389,-10.57598813532261,2.207863983498513,0.43237911232271414,-0.20015059946153535,-0.012126072476204008,0.213644676270563,0.00026407204155848296,0.22602366251503886,70,255,255,255
144,2.8800953080026375,4.1989049513060825,-1.5278501615294968,-10.57999102801693,2.207295838642689,0.43659775656710664,-0.2001446347160483,-0.02840724279120499,0.21093221221962594,0.00029823727435296377,0.22749069838639718,70,255,255,255
145,2.900161082001432,4.243067596796986,-1.51904071244813,-10.583993814660605,2.2081322745451835,0.4404724540683365,-0.20013933218370303,0.04182179512472839,0.19373487506149245,0.0002651266172633837,0.2295384215191383,70,255,255,255
146,2.9201788989994384,4.287239364064464,-1.5101539365740324,-10.58799650285948,2.208588363373937,0.44433879370488405,-0.20013440994377266,0.022804441437681344,0.1933169818273766,0.000246111996519055,0.23142232680126015,70,255,255,255
147,2.9401710999991337,4.3314130060174945,-1.5011901385309363,-10.591999091723448,2.2086820976515185,0.4481899021548081,-0.2001294431983231,0.004686713879070048,0.19255542249620305,0.00024833727247794424,0.23315551966081224,70,255,255,255
148,2.960185576001095,4.375581778671025,-1.4921497072282344,-10.596001587702737,2.208438632676516,0.4520215651350936,-0.20012479896451463,-0.012173248750105614,0.19158314901427803,0.00023221169042347833,0.23475005709160016,70,255,255,255
149,2.9801762900024187,4.419739274431584,-1.483033152906371,-10.600003989405346,2.2078747880279437,0.4558277160931665,-0.20012008513041257,-0.028192232428630337,0.19030754790364468,0.00023569170510262527,0.23621703152792506,70,255,255,255
150,3.000195619999431,4.463913782199569,-1.4738496643149597,-10.604006311659548,2.20872538839925,0.4591744295705647,-0.20011611271012741,0.04253001856531924,0.16733567386990922,0.000198621014257494,0.23826516981217133,70,255,255,255
151,3.0201287910022074,4.508097388189315,-1.4645988138317683,-10.608008534131363,2.2091802994872833,0.4625425241595728,-0.2001111235907676,0.022745554401671697,0.16840472945040458,0.0002494559679910857,0.2401494570336779,70,255,255,255
152,3.0401691860024584,4.552282982001933,-1.4552802043282709,-10.61201067217818,2.209279690630895,0.46593047517487307,-0.20010690234082829,0.004969557180596329,0.1693975507650129,0.00021106249696528634,0.24188300127746395,70,255,255,255
153,3.060164327001985,4.596463731869149,-1.445893614365141,-10.616012725889743,2.209037493360805,0.4693294981564938,-0.2001026855781324,-0.012109863504500495,0.16995114908103381,0.00021083813479350066,0.24347786198174712,70,255,255,255
154,3.080133890001889,4.6406331418294995,-1.436438969114844,-10.620014687300388,2.208470498017528,0.47273226251485423,-0.20009807053227172,-0.028349767163861728,0.1701382179180218,0.0002307522930346806,0.2449451338296876,70,255,255,255
155,3.100152775001334,4.684819630712218,-1.4268958465705859,-10.624016571747834,2.2093244441359143,0.4771561272129063,-0.20009422237227978,0.04269730591932763,0.221193234902604,0.00019240799959660548,0.2469930069355232,70,255,255,255
156,3.120187686999998,4.729015587118145,-1.4172649484467081,-10.628018392006595,2.2097978202963664,0.48154490619389223,-0.20009101293807038,0.023668808022607735,0.21943894904929623,0.00016047171046931763,0.24887705019289197,70,255,255,255
157,3.1401606969993736,4.7732136430976375,-1.4075471362063776,-10.63202014037878,2.2099027989746176,0.4858906120165309,-0.20008741860920262,0.005248933912549436,0.21728529113193418,0.0001797164433875731,0.25061036998967123,70,255,255,255
158,3.160141937001754,4.817406895754721,-1.397743350522866,-10.636021812376987,2.209662632854195,0.490189284175583,-0.20008359991033026,-0.012008306021133563,0.21493360795260513,0.00019093494361757668,0.25220502420270813,70,255,255,255
159,3.180156402002467,4.861588970372492,-1.3878545802252258,-10.640023414537257,2.209103730888545,0.49443851488201385,-0.20008010801354512,-0.027945098282494474,0.21246153532154283,0.00017459483925647001,0.25367210607870205,70,255,255,255
160,3.200100524001755,4.905788147824785,-1.3778644587216524,-10.644024934330572,2.209958872614616,0.4995060751786662,-0.20007598966575066,0.042757086303536695,0.253378014832617,0.00020591738972333684,0.2557196695941407,70,255,255,255
161,3.2201134339993587,4.949996724569596,-1.3677745570338904,-10.648026378398479,2.210428837240556,0.5044950843880971,-0.2000722033953203,0.023498231296983807,0.2494504604715473,0.00018931352151732583,0.2576034280283443,70,255,255,255
162,3.2401829500013264,4.994207625377789,-1.357586453603226,-10.652027771219112,2.210545040409669,0.509405171533213,-0.2000696410317147,0.005810158455660908,0.245504357255796,0.00012811818027988475,0.2593364857878116,70,255,255,255
163,3.260096630001499,5.038413697140269,-1.3473019488713058,-10.656029086016398,2.210303588124008,0.5142252365960065,-0.20006573986427756,-0.012072614283071381,0.24100325313967697,0.0001950583718576815,0.2609308989265215,70,255,255,255
164,3.2800747309993312,5.082608429808152,-1.336922823524958,-10.660030318360379,2.209736633394141,0.518956267317398,-0.20006161719906906,-0.028347736493349984,0.2365515360695738,0.00020613326042462354,0.2623977590141346,70,255,255,255
165,3.300077218002116,5.126820792037346,-1.3264361570371868,-10.664031505934984,2.210618111459698,0.5243333243885588,-0.20005937873024424,0.044073903277841886,0.26885285355804367,0.00011192344124094644,0.2644459791479733,70,255,255,255
166,3.3201100250007585,5.171043091257002,-1.3158440243425065,-10.668032660024496,2.2111149609827687,0.5296066347340191,-0.2000577044755588,0.024842476153535298,0.2636655172730138,8.371273427223991e-05,0.2663303416711049,70,255,255,255
167,3.340117181000096,5.215267998468137,-1.3051485717147389,-10.672033783081396,2.211245360556777,0.5347726313883755,-0.20005615284498296,0.006519978700401108,0.25829983271781876,7.758152879192015e-05,0.268063955192386,70,255,255,255
168,3.3600991800012707,5.25948853973653,-1.2943520085309141,-10.67603486941043,2.2110270634196416,0.5398281591912336,-0.2000543164517084,-0.010914856856766963,0.2527763901429073,9.181966372756589e-05,0.2696588796319646,70,255,255,255
169,3.380165099999431,5.30369843509671,-1.2834564847552383,-10.680035940571543,2.2104947680089686,0.5447761887837915,-0.2000535580556782,-0.026614770533652354,0.24740147962789594,3.7919801509411766e-05,0.27112621011637694,70,255,255,255
170,3.4001930090016685,5.347925973985498,-1.2724526816001323,-10.684036956732795,2.2113769444393956,0.5501901577553012,-0.20005080806259545,0.04410882152135498,0.2706984485754834,0.0001374996541369522,0.27317404793258293,70,255,255,255
171,3.4201731030007068,5.392163270029752,-1.2613429622369738,-10.688037913198398,2.21186480221274,0.5554859681579183,-0.20004782328018203,0.024392888667227552,0.2647905201308516,0.0001492391206708854,0.2750580587234924,70,255,255,255
172,3.4401287010005035,5.436402816040075,-1.2501297441660741,-10.692038797811108,2.211977300516111,0.5606609035449877,-0.20004423063546192,0.005624915168549016,0.2587467693534671,0.0001796322360058944,0.27679134865112914,70,255,255,255
173,3.4601488139996945,5.480637758106481,-1.2388153952390304,-10.696039619902876,2.2117471033203246,0.5657174463521885,-0.2000411045883953,-0.011509859789325727,0.2528271403600413,0.00015630235333033426,0.27838597538455495,70,255,255,255
174,3.480149402999814,5.524861598443101,-1.2274023242891288,-10.700040382098093,2.2111920168309918,0.5706535474950863,-0.2000381097608131,-0.027754324466637392,0.2468050571448953,0.00014974137911016872,0.27985303197930667,70,255,255,255
175,3.5001687980002316,5.569103261404468,-1.2158841253369166,-10.70404109409488,2.2120831480683503,0.5759099476106088,-0.2000355998392956,0.044556561867929556,0.2628200057761213,0.0001254960758735879,0.2819007111013678,70,255,255,255
176,3.5201136300020153,5.613354714434765,-1.2042631957694394,-10.708041740112186,2.212572651514843,0.5810464783738594,-0.2000323008653548,0.024475172324654793,0.25682653816253,0.00016494869703989612,0.28378457589366396,70,255,255,255
177,3.5401236190009513,5.657608599769804,-1.1925418805197487,-10.712042326271636,2.212694266751953,0.586065762484536,-0.20002930797244883,0.006080761855476791,0.25096420553383036,0.0001496446452985689,0.2855177315025764,70,255,255,255
178,3.5601634890008427,5.701858092838765,-1.1807225109734862,-10.716042867985243,2.2124746534480155,0.5909684773131286,-0.2000270856803596,-0.010980665196878903,0.24513574142962935,0.0001111146044623923,0.2871122346627759,70,255,255,255
179,3.5801401310018264,5.746096583243104,-1.1688075063391912,-10.720043359578456,2.2119245202169546,0.5957502317147564,-0.20002457966072296,-0.02750666155303927,0.2390877200813889,0.00012530098183233251,0.28857917757015944,70,255,255,255
180,3.600169683002605,5.790353109952678,-1.156793336869239,-10.724043808765073,2.212826335478697,0.6007084734976181,-0.2000224593308055,0.04509076308711801,0.24791208914309004,0.00010601649587194117,0.2906268164536335,70,255,255,255
181,3.620128693000879,5.834619649178432,-1.1446821812184307,-10.728044204253987,2.213326961287693,0.605557782540409,-0.20001977444572622,0.02503129044979069,0.24246545213954696,0.00013424425396416084,0.2925106442264296,70,255,255,255
182,3.640172158000496,5.878888912794633,-1.1324761452032392,-10.732044562543079,2.2134631808100274,0.610301800759577,-0.2000179144546324,0.00681097611672099,0.23720091095839413,9.299955469049825e-05,0.294243765777402,70,255,255,255
183,3.660178308000468,5.9231539261960675,-1.120177403088718,-10.736044887259077,2.213250670071721,0.6149371057260606,-0.20001623579987643,-0.010625536915309652,0.23176524832418532,8.39327377987753e-05,0.2958382376042966,70,255,255,255
184,3.680183398999361,5.967408136665376,-1.1077881482338054,-10.74004518152594,2.2127105234654216,0.619462742745623,-0.20001471334310827,-0.027007330314985367,0.22628185097811349,7.612283840835454e-05,0.2973051516850397,70,255,255,255
185,3.700126800002181,6.011680769287047,-1.0953075355176474,-10.744045456862349,2.213631631083558,0.6240306358079074,-0.20001376682042923,0.0460553809068216,0.2283946531142209,4.7326133952418914e-05,0.299353161808522,70,255,255,255
186,3.720142420999764,6.055963932506937,-1.0827373154755737,-10.748045718962311,2.214158160994486,0.6285110021036857,-0.20001310499815958,0.026326495546392437,0.22401831478891532,3.309111348295812e-05,0.30123733112212575,70,255,255,255
187,3.740204010002344,6.100250338512808,-1.070079222553134,-10.752045987909137,2.2143203002935796,0.632904646121994,-0.20001344734127038,0.008106964954689655,0.2196822009154178,-1.71171555396199e-05,0.3029707668906412,70,255,255,255
188,3.7601106530019024,6.144532635745492,-1.057335211192824,-10.756046232987458,2.2141148616341875,0.6372005680154902,-0.2000122539160414,-0.010271932969609932,0.21479609467480687,5.967126144865165e-05,0.3045655277976754,70,255,255,255
189,3.7801424950012006,6.188804320950204,-1.0445071077955845,-10.760046465426699,2.2135842602356317,0.6414051698619745,-0.20001162196204914,-0.02653006992778284,0.21023009232421241,3.159769961399994e-05,0.3060327078321468,70,255,255,255
190,3.8001276169998164,6.233094282363665,-1.0315967879690888,-10.764046655084982,2.214498070673033,0.6455159913247828,-0.2000094829141759,0.04569052187006628,0.2055410731404116,0.00010695239366209641,0.30808008871180614,70,255,255,255
191,3.8201188490020286,6.277394531417494,-1.0186055309628974,-10.768046801419953,2.215012452691467,0.6495628503095654,-0.20000731674854777,0.025719100921716365,0.2023429492391341,0.00010830828140581672,0.30996367912109274,70,255,255,255
192,3.8401358230003098,6.321697624771579,-1.0055346374676462,-10.772046912228554,2.215154667704214,0.6535446747625654,-0.20000554043003227,0.007110750637347785,0.19909122265000068,8.881592577514308e-05,0.3116965822976364,70,255,255,255
193,3.860182339001767,6.365996655669741,-0.9923854216264946,-10.776047004350193,2.2149515449081028,0.657460792057581,-0.20000460608196294,-0.010156139805573172,0.1958058647507792,4.67174034666229e-05,0.31329085322005656,70,255,255,255
194,3.880106551001518,6.410284746888298,-0.9791593927769984,-10.780047054506534,2.214404560927865,0.6613014424748122,-0.20000250781704257,-0.02734919901188082,0.1920325208615591,0.00010491324601810681,0.31475758246868313,70,255,255,255
195,3.900153621001664,6.454591401494352,-0.9658607128640515,-10.784047078128204,2.2153327303027224,0.6649339956473459,-0.20000118108347903,0.04640846874287252,0.18162765862668617,6.633667817654287e-05,0.31680524147220596,70,255,255,255
196,3.920100003000698,6.4989084434596815,-0.9524901247221238,-10.788047059611728,2.2158520982664496,0.6685294070963826,-0.1999990741761803,0.025968398186356545,0.17977057245183925,0.0001053453649366154,0.3186890877554469,70,255,255,255
197,3.940152831000887,6.543228511325185,-0.9390483088186642,-10.79204701841998,2.216003393275157,0.6720907951729783,-0.19999794041264052,0.007564750435369749,0.1780694038297862,5.6688176988395345e-05,0.3204222263360286,70,255,255,255
198,3.9601718920021085,6.587544572423471,-0.9255360609004556,-10.796046962078906,2.2158030549142973,0.6756123959104291,-0.19999718294627258,-0.01001691804299476,0.17608003687253848,3.787331839688601e-05,0.3220167138301638,70,255,255,255
199,3.9801259430023492,6.631849814426016,-0.9119543227965438,-10.800046876883929,2.2152621001272648,0.6790869051955903,-0.19999574025117647,-0.02704773935163285,0.1737254642580629,7.21347548054696e-05,0.3234836423247681,70,255,255,255
200,4.0001834530012275,6.676173833377415,-0.8983095864233115,-10.804046776040517,2.216200947569971,0.682236818661612,-0.19999495782938412,0.04694237213530794,0.1574956733010855,3.912108961814931e-05,0.32553140236675737,70,255,255,255
201,4.020151292999799,6.720508481318411,-0.8846019033368039,-10.808046650357724,2.2167323970497743,0.6853841543253797,-0.19999371586034942,0.026572473990163825,0.1573667831883846,6.209845173479889e-05,0.3274153416053875,70,255,255,255
202,4.040182348002418,6.764846284448929,-0.8708313417958105,-10.812046511464606,2.216890156525929,0.6885280770496738,-0.19999305534412215,0.007887973807723991,0.15719613621470574,3.3025811363773805e-05,0.32914856570492723,70,255,255,255
203,4.060140016001242,6.809179977510187,-0.856998160508466,-10.816046346829772,2.2166846530628845,0.6916590643672249,-0.1999917682582991,-0.010275173152220152,0.15654936587755564,6.435429115259073e-05,0.3307431318765038,70,255,255,255
204,4.080195868002193,6.853503051923845,-0.8431025771711629,-10.820046176133781,2.216153720682874,0.6947791668651547,-0.19999146520042738,-0.026546619000512806,0.15600512489649265,1.5152893585917981e-05,0.3322101327543542,70,255,255,255
205,4.100137313002051,6.897809040513696,-0.8291450427089572,-10.824045981275814,2.215299429492549,0.6978767231102857,-0.199990257101705,-0.04271455951624459,0.15487781225655095,6.040493611808584e-05,0.3335597735619766,70,255,255,255
206,4.1201119310026115,6.942064174183513,-0.815128050542413,-10.828039386235284,2.212756683490845,0.7008496083272107,-0.1996702479734876,-0.1271373000852103,0.1486442608462507,0.01600045641087139,0.3354997374076228,70,255,255,255
207,4.140142370000831,6.986264793419421,-0.8010513141494935,-10.832026795315688,2.210030961795373,0.7038368196459771,-0.1993704540201771,-0.13628608477361226,0.14936056593831992,0.014989697665524576,0.3372845041456173,70,255,255,255
208,4.160100837001664,7.030407315191079,-0.7869147542219471,-10.83600857512468,2.2071260885828896,0.7068279963773166,-0.19908899044964629,-0.1452436606241596,0.14955883656697633,0.014073178526541302,0.3389264895445722,70,255,255,255
209,4.180144188001577,7.074488736034707,-0.7727182805546292,-10.839985106443173,2.204071042181409,0.7098236833658945,-0.1988265659246266,-0.1527523200740375,0.14978434942889451,0.013121226250983858,0.3404371161116108,70,255,255,255
210,4.200119908000488,7.118606030189951,-0.7584152161110338,-10.843963125472246,2.205864707762187,0.7151532221797702,-0.19890095145369024,0.08968327903890438,0.26647694069378136,-0.003719276453181153,0.34252489475067316,70,255,255,255
211,4.2201166300001205,7.162750447097864,-0.7440079645314626,-10.84794257706986,2.20722084539564,0.7203625789785618,-0.19897257988067824,0.0678068816726527,0.26046783993957956,-0.003581421349399483,0.34444565109861053,70,255,255,255
212,4.240094959000999,7.206913658979035,-0.7294989766584326,-10.851923401224624,2.2081605940585933,0.7254493936515004,-0.1990412077382519,0.04698743314766762,0.2543407336469278,-0.003431392878683215,0.3462127469387129,70,255,255,255
213,4.26011979300165,7.251087956464863,-0.7148906565566665,-10.855905554211345,2.20871487429138,0.7304160050883011,-0.19910764933600053,0.027714011639330405,0.24833057184003404,-0.003322079887431495,0.3478384751116071,70,255,255,255
214,4.280177799999365,7.295266181165482,-0.7001853783922121,-10.859889003417564,2.208911235030967,0.7352639082227223,-0.19917246031090993,0.009818036979379219,0.24239515672106138,-0.003240548745470223,0.34933414503066973,70,255,255,255
215,4.300148846999946,7.339477442805133,-0.6853679661353904,-10.86387368512514,2.210563081982502,0.740870612841082,-0.19923408537882742,0.08259234757674028,0.28033523091799106,-0.0030812533958738675,0.3514084261208995,70,255,255,255
216,4.320164943001146,7.383713072656052,-0.6704413123050772,-10.867859555043982,2.2117814925459647,0.746332691515661,-0.19929349594208287,0.06092052817313398,0.27310393372894426,-0.0029705281627721014,0.3533167647239109,70,255,255,255
217,4.340185283999745,7.427964896708999,-0.655408304814154,-10.871846570998661,2.212591202647322,0.7516503745461571,-0.1993507977340133,0.04048550506785942,0.2658841515248067,-0.0028650895965204592,0.35507243623868134,70,255,255,255
218,4.36012238100011,7.472224939103767,-0.6402719430154776,-10.875834664872542,2.2130021197384204,0.7568180899338178,-0.19940469369405944,0.020545854554925747,0.2583857693830376,-0.002694798002306903,0.35668765403227015,70,255,255,255
219,4.380154034999578,7.516485991964815,-0.6250350815513458,-10.879823801169554,2.2130526430523862,0.7618430732065923,-0.19945681485058378,0.0025261656982964453,0.2512491636387223,-0.0026060578262164236,0.35817365440237187,70,255,255,255
220,4.4002194439999585,7.5607774768817695,-0.6096857967947651,-10.883813935866392,2.2145742458477597,0.767464237829033,-0.1995067348419638,0.07608013976866923,0.281058231122032,-0.002495999569000984,0.3602389675371692,70,255,255,255
221,4.420160746001784,7.605090513721817,-0.5942273143562795,-10.887805006060196,2.2156518420023463,0.7729241219242796,-0.1995535096901432,0.05387980772933343,0.27299420476233127,-0.002338742408970168,0.3621390556211828,70,255,255,255
222,4.440135040000314,7.6494168262514215,-0.5786627945712267,-10.891796961682914,2.2163156264802186,0.7782259892526417,-0.199597781135904,0.033189223893623776,0.2650933664181092,-0.002213572288039478,0.36388713665847533,70,255,255,255
223,4.46017538399974,7.693748824929961,-0.5629952848119065,-10.895789775389895,2.2165999339269584,0.7833754879660083,-0.19964068534909257,0.014215372336996879,0.25747493566832935,-0.0021452106594276876,0.36549537121278447,70,255,255,255
224,4.48011084600148,7.738079030869018,-0.5472279620728742,-10.899783386541994,2.2165102969528894,0.7883661369516196,-0.19968055760495912,-0.004481848703458802,0.24953244928056484,-0.0019936127933268544,0.36697494700274885,70,255,255,255
225,4.500143470999319,7.78243730156233,-0.5313518447932566,-10.90377778425546,2.217913534665578,0.79380586398088,-0.19971988567329568,0.07016188563442594,0.2719863514630214,-0.0019664034168278,0.3690341136670114,70,255,255,255
226,4.520130780001637,7.826814939280338,-0.5153700795759126,-10.90777292623915,2.218881885900411,0.7990882608671956,-0.19975709918449178,0.04841756174165557,0.2641198443157774,-0.0018606755598044034,0.3709285469981329,70,255,255,255
227,4.540136984000128,7.871203797634007,-0.49928576605436525,-10.911768777594956,2.2194429176834722,0.8042156760773684,-0.1997925677902968,0.02805158915305528,0.25637076050864105,-0.0017734302902507604,0.3726714256627647,70,255,255,255
228,4.560121161001007,7.915596130578235,-0.483102013681537,-10.915765297335023,2.2196166472113967,0.8091876186414124,-0.19982598700330323,0.008686476396227327,0.2485971282022007,-0.0016709606503209629,0.37427487403422594,70,255,255,255
229,4.580710550999356,7.959986587952872,-0.4668210329043361,-10.919762639529509,2.2195228687318433,0.8140490388600451,-0.1998671097242974,-0.004688923977663073,0.24307101093163286,-0.0020561360497080017,0.3757500465359703,70,255,255,255
230,4.600188021999202,8.00440306711484,-0.4504376501506516,-10.923760584112758,2.220823958098425,0.8191691376842212,-0.19989722916244915,0.0650544683290768,0.25600494120880135,-0.0015059719075875277,0.37780547863117264,70,255,255,255
231,4.620163632000185,8.048836862342243,-0.43395481759222365,-10.927759090425312,2.2216897613702113,0.8241416279214,-0.19992531562766758,0.04329016358932947,0.2486245118589394,-0.0014043232609217693,0.37969647615875884,70,255,255,255
232,4.640135240999371,8.093279749747591,-0.4173754752799025,-10.93175811806819,2.222144370267368,0.8289671156160576,-0.19995138214395555,0.022730444857837373,0.24127438473288243,-0.0013033258143993753,0.38143619388413813,70,255,255,255
233,4.660143515000527,8.13772410165716,-0.40070248730389574,-10.935757639965027,2.2222175954784524,0.8336493988003372,-0.19997609484185458,0.003661260554230772,0.23411415921397927,-0.0012356348949509877,0.3830367341914871,70,255,255,255
234,4.680141771001217,8.182162713656844,-0.38393871048918965,-10.93975762666747,2.221930599984217,0.8381888407353035,-0.19999933512214368,-0.014349774711775343,0.2269720967483181,-0.0011620140144559532,0.38450923127424813,70,255,255,255
235,4.700186166999629,8.226625609740612,-0.3670807651367053,-10.943758060840938,2.223144804188432,0.8428972676242195,-0.20002170867340205,0.06071021021073575,0.23542134444579366,-0.0011186775629177248,0.38656196718136726,70,255,255,255
236,4.720132599999488,8.271104020815285,-0.3501312734616785,-10.947758897801052,2.2239205537336697,0.8474745837513407,-0.20004184800570513,0.03878747726189058,0.22886580635605858,-0.001006966615153898,0.38845048421591694,70,255,255,255
237,4.740187422001327,8.315590025954094,-0.3330926837971066,-10.951760129584518,2.2243002569405137,0.851929483228595,-0.20006158917329045,0.018985160342198437,0.22274497386271486,-0.0009870583792658816,0.3901879198877026,70,255,255,255
238,4.76015929300047,8.360075901892168,-0.31596756489598227,-10.9557617215298,2.224293796903705,0.8562559450562176,-0.2000795972641297,-0.00032300184042721725,0.21632309138113026,-0.0009004045419621354,0.39178636070574535,70,255,255,255
239,4.7801189519996115,8.404554349888846,-0.298758488200464,-10.959763636570958,2.223922399833922,0.8604538347759125,-0.20009575205788216,-0.018569853489164956,0.20989448598474647,-0.0008077396876239595,0.39325692625834474,70,255,255,255
240,4.8001073930026905,8.449055724364134,-0.2814645398004727,-10.963765878423613,2.2250687237644633,0.8646974199995674,-0.20011209263273452,0.0573161965270752,0.21217926118274266,-0.0008170287426182421,0.3953080798596666,70,255,255,255
241,4.820203769002546,8.493571755933356,-0.26408761300540823,-10.96776845473243,2.2258015784611263,0.8688463397532229,-0.200128815440881,0.03664273483314373,0.20744598768277633,-0.0008361404073240764,0.3971951411728827,70,255,255,255
242,4.840125831000478,8.538094090118758,-0.24662988804892033,-10.971771316367787,2.2261167092701206,0.8728862478243954,-0.2001430817678003,0.015756540449719747,0.20199540355862533,-0.0007133163459644432,0.3989312375810415,70,255,255,255
243,4.860129307002353,8.582615124151879,-0.22909341857061544,-10.975774442743793,2.226051701656043,0.8768234739152445,-0.2001563188003059,-0.003250380703868405,0.19686130454245665,-0.0006618516252800688,0.4005284462765476,70,255,255,255
244,4.880114719999256,8.627127655708993,-0.21148028872888178,-10.979777808305968,2.225626577855665,0.8806564920866831,-0.2001682781087311,-0.021256190018898113,0.19165090857192557,-0.0005979654212599217,0.4019978782764132,70,255,255,255
245,4.900129281002592,8.671662099119303,-0.1937920728932926,-10.983781410417762,2.226722170515467,0.8844107917794596,-0.20018010558969335,0.05477963299010069,0.1877149846388263,-0.0005913740481114649,0.4040483116228359,70,255,255,255
246,4.92012573700049,8.716209873221352,-0.17603022126657272,-10.98778522798874,2.22738870510252,0.8880925813359933,-0.20019087854882073,0.03332672935263936,0.18408947782669005,-0.0005386479563692925,0.40593471030154477,70,255,255,255
247,4.940139946000272,8.760762947203876,-0.15819618701836932,-10.991789246530114,2.227653699126151,0.8917017124101705,-0.20020092706871875,0.013249701181543116,0.18045655370885916,-0.0005024259949018839,0.4076701970859569,70,255,255,255
248,4.960114857000008,8.80531363787087,-0.14029151324286993,-10.995793439525517,2.22753453334972,0.8952336887749692,-0.20020964977010866,-0.0059582888215601315,0.17659881823993773,-0.00043613506949574665,0.4092668449276161,70,255,255,255
249,4.980192622999311,8.8498550559674,-0.12231760218668067,-10.999797814684033,2.2270709048264035,0.8986955528094629,-0.2002187579257719,-0.023181426165816976,0.17309320172468134,-0.0004554077831616654,0.4107357609419426,70,255,255,255
250,5.000114456001029,8.894417021820828,-0.1042786637784465,-11.003802305258663,2.228098292671457,0.9019469204117083,-0.20022452873149885,0.05136939225267945,0.16256838011226893,-0.00028854028634714424,0.4127846725656632,70,255,255,255
251,5.020141017001151,8.93899108841558,-0.086175418373115,-11.007806905639042,2.2287033297375527,0.9051622702665746,-0.2002300190189138,0.030251853304782195,0.16076749274331215,-0.0002745143707474085,0.41466967125948617,70,255,255,255
252,5.040093768999213,8.983569060007015,-0.06800876409395293,-11.011811586756854,2.2288985795717924,0.9083327139581039,-0.20023405589062254,0.009762491711983845,0.15852218457646278,-0.00020184358543706704,0.41640387005780327,70,255,255,255
253,5.060179608000908,9.028143652225594,-0.04977943368457951,-11.015816363746547,2.228729610928934,0.9114665204686709,-0.20023884948463078,-0.00844843214291835,0.1566903255283537,-0.00023967970041199882,0.417999332952255,70,255,255,255
254,5.080117377001443,9.072707549346939,-0.031488453125866345,-11.019821203298703,2.2281948560672467,0.914549027935658,-0.20024197760783166,-0.02673774308438004,0.1541253733493496,-0.00015640616004475305,0.4194671588151506,70,255,255,255
255,5.10008743599974,9.11729124245335,-0.013110144886655083,-11.023826092236291,2.2291846553205383,0.918915411960563,-0.20024444687941756,0.049489962664583054,0.21831920124525428,-0.00012346357929515772,0.4215156740503058,70,255,255,255
256,5.12008926999988,9.161886215745552,0.005353490145905124,-11.027831020360765,2.2297486646101423,0.9231817516280103,-0.2002464062237035,0.028200464480190313,0.21331698337236088,-9.796721429580768e-05,0.42340030806664863,70,255,255,255
257,5.140127227001358,9.206484561917536,0.02390049356970211,-11.031835989582152,2.22991730859923,0.9273501711898493,-0.200248461069398,0.008432199454388556,0.20842097809195087,-0.00010274228472642588,0.425134171361684,70,255,255,255
258,5.160105712002405,9.251078652394645,0.04252879403582708,-11.035840982599085,2.2297045238553816,0.9314150233062484,-0.20024965084665666,-0.010639237192432205,0.20324260581995202,-5.948886293277722e-05,0.42672932559311655,70,255,255,255
259,5.18010988199967,9.295661405317796,0.061236356320330726,-11.039845991329402,2.2291376461575574,0.9353781142251824,-0.20025043651588134,-0.02834388489120565,0.19815454594669987,-3.9283461234274064e-05,0.42819686748603447,70,255,255,255
260,5.200088663001225,9.340263371336736,0.08004486696276233,-11.043850998766414,2.230098300946957,0.94042553212158,-0.20025037185057057,0.048032739469984875,0.25237089481988373,3.2332655381661635e-06,0.4302451188089661,70,255,255,255
261,5.220111321999866,9.38487610702888,0.09895149420672163,-11.047856004226698,2.23063678460726,0.9453313621979648,-0.2002502730141957,0.026924183015158754,0.24529150381923703,4.941818742748572e-06,0.4321295100260632,70,255,255,255
262,5.2401384270015114,9.429491672572738,0.11795342661301375,-11.051861008493722,2.2307782771928366,0.9500966203146062,-0.20025021335120693,0.007074629278835065,0.23826290583207316,2.9831494380017087e-06,0.43386314994579256,70,255,255,255
263,5.260147127999517,9.474102541115526,0.1370478383153017,-11.055866006416574,2.230543427139451,0.9547205851143976,-0.20024989614260377,-0.011742502669282118,0.23119823998956923,1.5860430158415317e-05,0.43545809867194357,70,255,255,255
264,5.280140957002004,9.518701597340451,0.15623190028456907,-11.059870988404509,2.2299528112462434,0.9592030984633687,-0.20024909939672847,-0.029530794660378668,0.22412566744855722,3.9837293765637716e-05,0.4369254515000025,70,255,255,255
265,5.300139004000812,9.563319414324301,0.1755236306339473,-11.063875930141,2.2308908491925172,0.9645865174689108,-0.20024708682456593,0.04690189731367855,0.2691709502771059,0.00010062860812609653,0.43897353542474266,70,255,255,255
266,5.320152570999198,9.607947521328763,0.19491964654739444,-11.067880830475795,2.2314053502230484,0.9698007956723567,-0.200245016739788,0.025725051526549247,0.2607139101722925,0.00010350423889698979,0.4408577726355036,70,255,255,255
267,5.340137621002214,9.6525778481414,0.21441655295461443,-11.071885679268462,2.231516340631873,0.9748453203609994,-0.20024243963336136,0.005549520441230804,0.2522262344321361,0.00012885532133216637,0.44259127086940364,70,255,255,255
268,5.360153838002589,9.697202904945224,0.2340110499255949,-11.0758904770429,2.231252840191217,0.9797248485490241,-0.2002398887219131,-0.013175022032791084,0.24397640940123655,0.00012754557241390074,0.4441860892445917,70,255,255,255
269,5.380115225001646,9.741815484288274,0.2536997863866752,-11.079895206827604,2.2306289671525437,0.9844368230540139,-0.20023648923518142,-0.031193651933661304,0.23559872524949121,0.00016997433658358374,0.4456533221497647,70,255,255,255
270,5.400118353001744,9.786446697367394,0.2734976795759398,-11.083899887128222,2.2315606539559956,0.9898946594632311,-0.20023401503085972,0.046584340172591165,0.272891820460859,0.0001237102160847603,0.4477016219474819,70,255,255,255
271,5.420126439999876,9.831088042095885,0.2934010787681449,-11.087904516013156,2.2320672364246117,0.995169959610256,-0.20023144424671807,0.025329123430813727,0.2637650073512484,0.0001285392070821123,0.4495860577613818,70,255,255,255
272,5.440149587000633,9.875731558493625,0.31340640949664467,-11.091909096568173,2.232175819886953,1.0002665364249872,-0.20022902775084223,0.005429173117052155,0.2548288407365581,0.00012082479379191269,0.4513197387101696,70,255,255,255
273,5.460273298001994,9.920370082509423,0.3335103224536279,-11.0959136639517,2.231926200789952,1.0051956478491595,-0.20022836917633932,-0.012480954850042636,0.24645557120861317,3.292872514579215e-05,0.4529147251830544,70,255,255,255
274,5.48017408600208,9.964996174569373,0.353709126332386,-11.099918179898372,2.231304602997521,1.009940193937906,-0.20022579733362592,-0.031079889621544066,0.23722730443732343,0.00012859213567012473,0.45438211273810847,70,255,255,255
275,5.500158008002472,10.00964049338105,0.3740143660217659,-11.103922611741847,2.2322159405838327,1.015261984468997,-0.2002215921737352,0.04556687931559278,0.266089526554552,0.00021025799453608385,0.4564300077158289,70,255,255,255
276,5.520236233001924,10.05429476474925,0.3944225057888312,-11.107926982469365,2.232713568409944,1.0204069883532647,-0.2002185363759512,0.024881391305562328,0.25725019421339135,0.00015278988920058856,0.45831407109533173,70,255,255,255
277,5.540166955001041,10.098950722996786,0.41492979779096517,-11.111931266585762,2.2327979123768915,1.0253646001066978,-0.2002142058198186,0.004217198347369777,0.247880587671661,0.00021652780662897997,0.46004740940447436,70,255,255,255
278,5.560123559000203,10.143600678510504,0.43553260596629995,-11.115935448546397,2.2324977756858853,1.0301404087667387,-0.20020909803172884,-0.015006834550322257,0.23879043300204894,0.00025538940448802117,0.46164208064888557,70,255,255,255
279,5.580094061999262,10.188237457135205,0.45622738405382,-11.119939518350439,2.231838931235091,1.0347389043760022,-0.2002034902020586,-0.032942222539708244,0.22992478046317943,0.00028039148351263754,0.46310917819374386,70,255,255,255
280,5.6001889889994345,10.232892476509628,0.477023165772618,-11.123943507881835,2.2327509687211604,1.0397890859398995,-0.20019947656985002,0.045601874303465184,0.2525090781948587,0.00020068161042996469,0.4651572840586807,70,255,255,255
281,5.6201224739998,10.277556981309791,0.49791633979762084,-11.127947394288896,2.2332252400081702,1.0446587012501434,-0.20019432035306806,0.023713564350487992,0.2434807655121929,0.00025781083909748315,0.4670415414544225,70,255,255,255
282,5.640080642999237,10.322222805343268,0.5189033998909537,-11.13195116415491,2.233291201673856,1.049353004666644,-0.20018849330071922,0.003298083284304365,0.23471517082502835,0.0002913526174412595,0.468775058258505,70,255,255,255
283,5.6601349449992995,10.366882577904006,0.5399810722480969,-11.135954835817193,2.232988628036933,1.0538836178571578,-0.20018358311423118,-0.01512868184616023,0.22653065952568863,0.0002455093244020934,0.47036989371826093,70,255,255,255
284,5.680161385000247,10.411529291052275,0.5611460845826065,-11.139958417754112,2.2323356574135174,1.0582506167254788,-0.2001790968459649,-0.032648531170764716,0.21834994341605007,0.00022431341331322074,0.4718371423412364,70,255,255,255
285,5.7001644910014875,10.456194177346188,0.5824046244938201,-11.14396191654001,2.2332443146956424,1.0629269955606828,-0.20017493929484767,0.04543286410624514,0.23381894176020013,0.00020787755586176848,0.4738851010757737,70,255,255,255
286,5.720199616000173,10.50086879497893,0.6037536120382386,-11.147965342805888,2.2337308816371166,1.0674493772209235,-0.20017131329390467,0.024328347073703238,0.22611908301203232,0.0001813000471499182,0.47576922311154796,70,255,255,255
287,5.740126572000008,10.545544846941159,0.6251898100454493,-11.151968672046843,2.2338025981114566,1.0718099003605346,-0.2001664620477453,0.0035858237169978935,0.2180261569805504,0.00024256230796812495,0.4775026153844603,70,255,255,255
288,5.760127335001016,10.590214767931569,0.6467101706673087,-11.155971905001746,2.233496049520519,1.0760180310929721,-0.20016164774509526,-0.015327429546876825,0.21040653662187236,0.0002407151325024559,0.47909733627553963,70,255,255,255
289,5.780156913999235,10.634871548587679,0.6683117468286374,-11.15997505174031,2.23283903280552,1.0800788080664288,-0.2001573369281835,-0.03285083574994996,0.20303884867283206,0.00021554084558822462,0.48056447949533265,70,255,255,255
290,5.800116605001676,10.679546538136192,0.6899981797391114,-11.163978121330015,2.2337494774256874,1.0843216455236977,-0.20015347948525986,0.04552223100837649,0.21214187286344544,0.00019287214618129989,0.48261252486758055,70,255,255,255
291,5.821348747002048,10.724235106914689,0.7117690880798344,-11.16798150777389,2.2344284389248235,1.0885454170361517,-0.20016932219374117,0.033948074956796415,0.21118857562270543,-0.0007921354240663647,0.4844967266100486,70,255,255,255
292,5.840329081001983,10.768925675528124,0.7336197987331661,-11.171984860349253,2.234528430671721,1.0925355326665822,-0.2001676287682026,0.004999587344875156,0.19950578152152998,8.467127692907139e-05,0.4862301922131192,70,255,255,255
293,5.860141534001741,10.813610018926218,0.7555473357573825,-11.175988115709057,2.2342171699046913,1.0963768512108232,-0.20016276799016336,-0.015563038351487979,0.19206592721205373,0.00024303890196214484,0.48782498056794416,70,255,255,255
294,5.880084197000542,10.858280832194051,0.7775490205241693,-11.179991256129817,2.233540663391644,1.1000842383393383,-0.20015702103800295,-0.03382532565236662,0.18536935642575458,0.00028734760802040515,0.4892921858543831,70,255,255,255
295,5.900193642999511,10.902969255426674,0.7996258919007931,-11.183994265990403,2.2344211616311727,1.1038435688311923,-0.20015049302930574,0.04402491197644176,0.18796652459269403,0.000326400434860874,0.4913395385344785,70,255,255,255
296,5.920160687001044,10.947666625089834,0.8217758143515878,-11.187997137762729,2.2348684831579653,1.107496122539732,-0.20014358861630802,0.022366076339623397,0.1826276854269877,0.00034522064988623535,0.49322310300016625,70,255,255,255
297,5.940129405000334,10.992364788503833,0.8439966667518894,-11.191999865127015,2.234908170699984,1.1110426200150836,-0.20013636821429281,0.001984377100931578,0.1773248737675761,0.00036102010076022317,0.494955982308599,70,255,255,255
298,5.960101659002248,11.037056092194966,0.8662863484327231,-11.19600244350524,2.2345651845566676,1.1144840840416823,-0.20012891891128623,-0.01714930716580998,0.17207320132993376,0.0003724651503288767,0.4965502312723571,70,255,255,255
299,5.980167804002122,11.081733653324699,0.8886429519087269,-11.200004898877564,2.2338780564866396,1.117830173800191,-0.20012276861620004,-0.03435640350140634,0.16730448792543462,0.0003075147543096235,0.49801694031901456,70,255,255,255
300,6.000128326002596,11.126429021090345,0.9110653683429516,-11.204007245143424,2.2347683882823555,1.121120821711236,-0.2001173132929944,0.04451658978579642,0.16453239555224797,0.00027276616028248934,0.5000644918855073,70,255,255,255
301,6.020127207000769,11.171133610924521,0.9335521718641557,-11.208009484737103,2.2352294917087843,1.1243401760602076,-0.20011197968388303,0.02305517132144974,0.16096771744858063,0.0002666804555680191,0.5019482393266806,70,255,255,255
302,6.040239592999569,11.215839701794575,0.9561021370688617,-11.212011656439099,2.2353045435027017,1.1274982602353005,-0.2001085850998049,0.0037525896958623406,0.1579042087546465,0.00016972920390748159,0.5036812869725601,70,255,255,255
303,6.06014668699936,11.260539376593762,0.9787136168490145,-11.216013731118272,2.234983739959346,1.1305739890076358,-0.20010373395860834,-0.01604017716777939,0.15378643861676133,0.00024255705982756393,0.5052756908067693,70,255,255,255
304,6.08013412299988,11.305225460601857,1.0013851187600629,-11.220015707256023,2.2343042004047398,1.1335750955524169,-0.2000988068875581,-0.03397697773030206,0.15005532723905057,0.0002463535525123739,0.5067425423342417,70,255,255,255
305,6.100120330000209,11.349891227394313,1.0241151415089824,-11.224017583189259,2.233288339622815,1.136501137445977,-0.2000937966617561,-0.050793039096230785,0.14630209467800648,0.0002505112901000084,0.5080920457395163,70,255,255,255
306,6.120186051000928,11.394504754282078,1.0468938286271245,-11.228012974050037,2.2306763443882303,1.1389343559071083,-0.1997695430388877,-0.13059976172924515,0.12166092305656662,0.01621268114342153,0.5100319291958655,70,255,255,255
307,6.140526093000517,11.439062882150811,1.0697215192461749,-11.232002385130768,2.2279063934366334,1.1413845309525195,-0.1994705540365225,-0.13849754757984245,0.12250875227055813,0.01494945011825935,0.5118166219757068,70,255,255,255
308,6.160137016999215,11.483560396893859,1.0925970304654276,-11.235986067656205,2.2248757371524253,1.1437755609626394,-0.1991841262718199,-0.15153281421039821,0.11955150050599883,0.014321388235130822,0.5134585393331608,70,255,255,255
309,6.180097816002672,11.527993613831987,1.1155198568207272,-11.239964378903306,2.2216608469063788,1.1461413177649775,-0.19891556235501984,-0.16074451230231368,0.11828784011690452,0.013428195840002571,0.5149691033020184,70,255,255,255
310,6.200145078000787,11.572461789399703,1.1385557691376225,-11.243944098029655,2.223408778385806,1.1517956158447684,-0.19898595631742422,0.08739657397136202,0.28271490398954646,-0.003519698120218351,0.5170568217257561,70,255,255,255
311,6.220111465001537,11.616955569436726,1.1617007391000609,-11.247925162255735,2.2246890018511705,1.1572484981219204,-0.19905321130398843,0.06401117326821071,0.2726441138576037,-0.003362749328211012,0.5189775226755947,70,255,255,255
312,6.240076946000045,11.661466117166034,1.1849508038011665,-11.251907510126719,2.225527386465412,1.162503235055281,-0.19911739354924854,0.041919230712088584,0.2627368466680311,-0.003209112263005881,0.5207445675494463,70,255,255,255
313,6.260110737999639,11.705985317784123,1.2083022054893058,-11.25589110368076,2.22596003090439,1.1675700844069679,-0.1991796777021077,0.02163222194888803,0.2533424675843412,-0.003114207642958805,0.5223702488333898,70,255,255,255
314,6.280110315001366,11.75050542004308,1.2317511818545126,-11.259875894291831,2.226005112947858,1.1724488182603447,-0.19923953055349972,0.002254102173414374,0.2439366926688482,-0.0029926425696002457,0.5238658756146178,70,255,255,255
315,6.300090804001229,11.7950575560082,1.2553182856269287,-11.263861840823848,2.2276067982560184,1.1783551886208,-0.19929732660091026,0.08008426540802382,0.29531851802275355,-0.0028898023705275777,0.5259398798487448,70,255,255,255
316,6.3201824450006825,11.839632813490768,1.2789992274442143,-11.267848925732226,2.228762874128392,1.1840470908642817,-0.19935424541890606,0.05780379361869148,0.2845951121740895,-0.00284594089978929,0.5278479637441417,70,255,255,255
317,6.340148979001242,11.884222377696567,1.3027895409435857,-11.27183709066941,2.2294782102899076,1.189515674968563,-0.19940824685916084,0.03576680807577182,0.2734292052140601,-0.0027000720127389743,0.5296034009279067,70,255,255,255
318,6.360198763999506,11.928818206231467,1.3266850205870744,-11.275826305700969,2.2297914267449905,1.1947739821744316,-0.19946075157799786,0.015660822754141712,0.2629153602934313,-0.002625235941851517,0.5312184031369706,70,255,255,255
319,6.38103871900239,11.973415257766076,1.3506831379212794,-11.279816793862793,2.229852576730438,1.1999058667102545,-0.19952440809122604,0.0030574992723662042,0.2565942267911454,-0.0031828256614086503,0.5327042051693093,70,255,255,255
320,6.400155686002108,12.018041663265645,1.3747991865211706,-11.283808204220566,2.2313202749784677,1.2058024299945576,-0.19957051788870186,0.07338491240150535,0.2948281642151578,-0.002305489873790839,0.5347695707337398,70,255,255,255
321,6.420158049000747,12.062688266805074,1.3990284708397227,-11.28780049594212,2.2323301769714328,1.2114642159276061,-0.19961458607768548,0.05049509964825116,0.28308929665242344,-0.0022034094491800993,0.5366697070530158,70,255,255,255
322,6.440119295999466,12.107346297926703,1.4233663116776152,-11.291793616077912,2.2329015560814605,1.2168920418946225,-0.19965600678958526,0.028568955501392157,0.2713912983508242,-0.002071035594989029,0.5384178324667497,70,255,255,255
323,6.460142407002422,12.152007692081016,1.4478082635981464,-11.295787533326392,2.233069707715629,1.2220975960265619,-0.19969586242395498,0.008407581708440137,0.26027770659696925,-0.001992781718486797,0.5400261078473849,70,255,255,255
324,6.482022775002406,12.196670806433003,1.4723537850837964,-11.29978281131096,2.2331557175994003,1.2272760742825028,-0.19976389922838386,0.004300494188554271,0.2589239127970473,-0.0034018402214445187,0.5415057211975693,70,255,255,255
325,6.500129218002257,12.241360479646845,1.497012917486317,-11.303778765892435,2.234483660692063,1.23295662012602,-0.1997977290737854,0.06639715463312079,0.28402729217586375,-0.0016914922700771162,0.5435648226891183,70,255,255,255
326,6.520089223002287,12.286067486729687,1.5217809072629023,-11.307775350149274,2.2353503541420627,1.2383994888292706,-0.1998292128419453,0.04333467250000478,0.2721434351625325,-0.001574188407995225,0.5454591960613434,70,255,255,255
327,6.540115618001437,12.330783340902054,1.5466532500057544,-11.311772540212543,2.2357927086182996,1.2436171371426008,-0.1998595031634549,0.02211772381183419,0.2608824156665128,-0.0015145160754810039,0.5472020195637904,70,255,255,255
328,6.560077605001425,12.375499844330298,1.5716254106352099,-11.315770292065595,2.235825171412171,1.248608031472781,-0.1998875926526123,0.0016231396935597608,0.24954471650900834,-0.001404474457869398,0.5488054171860417,70,255,255,255
329,6.5801086430001305,12.420209510975177,1.5966931100970054,-11.31976858553024,2.2354833322439434,1.2533849730897757,-0.19991467323215525,-0.01709195841138378,0.23884708084973716,-0.0013540289771481473,0.5502805429985129,70,255,255,255
330,6.600195038001402,12.464944103706996,1.6218679110333716,-11.323767417876395,2.236729636590982,1.2587400468183103,-0.19994161730778423,0.06231521735194834,0.2677536864267347,-0.0013472037814488969,0.5523362366436964,70,255,255,255
331,6.620110394000221,12.509694280751365,1.6471451702251247,-11.327766731553337,2.2375088522184643,1.2638629595876558,-0.19996568384716415,0.03896078137410708,0.2561456384672731,-0.0012033269689956938,0.5542274747972652,70,255,255,255
332,6.640079548000358,12.55445140805906,1.672520472737965,-11.331766488908618,2.23785636538477,1.2687651256420136,-0.19998786776402805,0.017375658315278653,0.24510830271788575,-0.0011091958431953264,0.5559674138985484,70,255,255,255
333,6.660114320999128,12.599207568484186,1.6979896502560077,-11.335766674837128,2.2378080212562845,1.2734588759021366,-0.200009296425438,-0.0024172064242624636,0.23468751300614588,-0.0010714330704967856,0.5575681578717291,70,255,255,255
334,6.68010633400263,12.643955184624627,1.723548544050371,-11.339767260771147,2.237380807022059,1.2779446897181708,-0.2000292967009386,-0.021360711711287284,0.22429069080170527,-0.0010000137750310334,0.5590408423270553,70,255,255,255
335,6.700137523999729,12.688725993701029,1.7492059775078594,-11.34376823875013,2.238540453820064,1.282871672874425,-0.20004889894916691,0.057982339900255475,0.2463491578127086,-0.0009801124114153792,0.5610935948428013,70,255,255,255
336,6.720142542999383,12.733510986903509,1.7749578782125288,-11.347769585292694,2.2392496601240217,1.287595035233464,-0.20006732712817743,0.03546031519786785,0.23616811795194992,-0.000921408950526198,0.5629821271572877,70,255,255,255
337,6.740185767001094,12.778301795512185,1.8008003488594144,-11.351771289962235,2.239540430433817,1.2921235323442832,-0.20008523347706952,0.014538515489760595,0.2264248555409598,-0.0008953174446053591,0.5647195768866151,70,255,255,255
338,6.760160799000005,12.823090325411307,1.8267294348625502,-11.355773320553904,2.239426494956156,1.29645430015679,-0.20010152958344737,-0.005696773883042905,0.21653839062534241,-0.0008148053188918869,0.5663180306375963,70,255,255,255
339,6.7801328980021935,12.86786896239242,1.8527412740380522,-11.359775645335107,2.238931849055575,1.3005919587750956,-0.20011623906014406,-0.02473229502903962,0.20688293091527865,-0.0007354738348342715,0.5677886080884991,70,255,255,255
340,6.800171129001683,12.912669388865488,1.8788420553157272,-11.36377824320202,2.2400213236534823,1.3050390638837552,-0.2001298933456885,0.054473729895363476,0.22235525543297863,-0.0006827142772230788,0.5698396445779481,70,255,255,255
341,6.820178687001317,12.95748264096424,1.9050282184381155,-11.367781096031475,2.240662604937611,1.309308156119418,-0.20014264147274144,0.032064064206436704,0.21345461178313907,-0.0006374063526469465,0.5717265981482412,70,255,255,255
342,6.840193725001882,13.002300296069379,1.9312962964291362,-11.371784188773352,2.2408827552568824,1.3134038995510364,-0.20015463709382375,0.011007515963564085,0.20478717158091797,-0.000599781054115095,0.5734625954329108,70,255,255,255
343,6.860161070999311,13.047114277259542,1.957642795487128,-11.375787491635238,2.240699059508175,1.3173249528995945,-0.2001651430942498,-0.009184787435369213,0.19605266742789995,-0.0005253000213024661,0.5750597129348068,70,255,255,255
344,6.880176032002055,13.091917150474934,1.9840644095776263,-11.379790991512873,2.240143660769616,1.3210807045249169,-0.20017499388174334,-0.027769936927950045,0.1877875812661145,-0.0004925393746777196,0.5765290610365512,70,255,255,255
345,6.900176954000926,13.136740786736144,2.0105649627604807,-11.38379467883607,2.2411818130605408,1.325027659142726,-0.20018436615980137,0.05190761454623738,0.19734773089044788,-0.0004686139029015657,0.5785791984930146,70,255,255,255
346,6.920211898999696,13.181576334266403,2.03714155622631,-11.387798547640775,2.2417773765129163,1.3288296732914617,-0.20019344023530047,0.029778172618781795,0.1901007074367962,-0.00045370377495565495,0.5804653249529611,70,255,255,255
347,6.940193670001463,13.226415283180723,2.063791226018306,-11.391802575014735,2.2419474457160113,1.3324834895997983,-0.20020136869792146,0.00850346015475667,0.1826908154168263,-0.0003964231310499,0.5822005612961119,70,255,255,255
348,6.960200355002598,13.271249708469801,2.0905111241066283,-11.395806747139192,2.241721264453957,1.3359949044161061,-0.20020860622288666,-0.011309063102725503,0.1755707408153908,-0.00036187624825975706,0.5837969787318105,70,255,255,255
349,6.9801173100022424,13.31607188072669,2.117298262848454,-11.39981102207932,2.2411086128444424,1.3393569370912761,-0.20021374700639172,-0.030632580475723703,0.16810163375850418,-0.0002570391752527157,0.5852656827726532,70,255,255,255
350,7.000128330000734,13.360913770854312,2.1441541984983052,-11.403815396845792,2.2420945063810325,1.3427967824925613,-0.20021873832361664,0.049294676829497064,0.17199227006426088,-0.000249565861245693,0.5873148243893547,70,255,255,255
351,7.020171186999505,13.405766585898613,2.171076730825812,-11.40781987216364,2.2426407522150207,1.3461266163753467,-0.20022376589247068,0.02731229169940752,0.16649169413927356,-0.0002513784427015664,0.58920003467672,70,255,255,255
352,7.0403900609999255,13.450622606257323,2.198064079347324,-11.411824504878956,2.2428010179354927,1.3493674260755917,-0.20023163576577216,0.008013286023601296,0.16204048501224855,-0.0003934936650746568,0.5909344281410961,70,255,255,255
353,7.060191893000592,13.495473235841406,2.2251135325057163,-11.415829214721786,2.242531479204146,1.3524726579196165,-0.20023549214146114,-0.013476936567319076,0.1552615922012428,-0.00019281878444818434,0.5925300701283222,70,255,255,255
354,7.080131276001339,13.540310843115607,2.2522227501915353,-11.41983397013129,2.2418803637100733,1.3554608842909524,-0.2002377704751943,-0.03255577470363846,0.14941131856679135,-0.00011391668665866606,0.5939980607565701,70,255,255,255
355,7.100200856999436,13.585167405619405,2.279422890647135,-11.423838761957773,2.242828125189858,1.3600070227799768,-0.20023959132415958,0.047388073989233614,0.22730692445122003,-9.10424482638561e-05,0.596046790428677,70,255,255,255
356,7.120094859001256,13.630033676345422,2.3067101785700768,-11.427843546429935,2.243313536300843,1.3643643961470868,-0.20023922360809743,0.02427055554924884,0.21786866835550112,1.8385803107645593e-05,0.5979316217270154,70,255,255,255
357,7.140285125002265,13.674901895618367,2.3340815988685457,-11.431848377219,2.243410963647249,1.3685710149234458,-0.20024153945324213,0.004871367320300468,0.21033093881795217,-0.00011579225723523656,0.5996656665214868,70,255,255,255
358,7.160114959002385,13.719763612843389,2.3615333638227107,-11.43585318936357,2.2430858612510542,1.3725882477082565,-0.20024060722855494,-0.01625511980973915,0.20086163924053668,4.6611234360061093e-05,0.6012609877324003,70,255,255,255
359,7.18016213699957,13.764611590365393,2.3890622782422346,-11.439857991379844,2.242398876100179,1.3764457209762047,-0.20024010081373833,-0.03434925754376206,0.19287366339741263,2.5320740830642174e-05,0.6027286832464408,70,255,255,255
360,7.200169359999563,13.809478034014118,2.41669566846196,-11.443862791754533,2.2433221824362586,1.381669510986253,-0.20024001873449426,0.046165316803959744,0.26118950050241674,4.103962202850475e-06,0.6047771640189646,70,255,255,255
361,7.220171749999281,13.854354057160123,2.444429139201535,-11.447867583670334,2.2438011573002297,1.3866735369787695,-0.20023959579002515,0.023948743198560773,0.2502012996258254,2.1147223455142417e-05,0.6066617663296865,70,255,255,255
362,7.240225862002262,13.899231456554945,2.4722585179391605,-11.451872377283554,2.243869969741159,1.3914689368812607,-0.20023968066100786,0.0034406220464782145,0.23976999512456199,-4.243549136084823e-06,0.6083956004555506,70,255,255,255
363,7.26016729100229,13.944102158357426,2.5001794694232293,-11.455877146079848,2.2435350901240514,1.3960475742034328,-0.20023843981467448,-0.01674398085537865,0.22893186610860172,6.204231666870341e-05,0.6099907278513456,70,255,255,255
364,7.28017082000224,13.988958782593022,2.5281879150829174,-11.459881885047436,2.2428312117797637,1.4004222829844002,-0.2002369483794168,-0.035193917214373815,0.218735439048364,7.457176288394596e-05,0.611458245055477,70,255,255,255
365,7.300165985001513,14.033833594224737,2.556307573755184,-11.463886602448412,2.24374058158571,1.4059829336133427,-0.2002358700488424,0.04546849029730948,0.27803253144712015,5.39165287199439e-05,0.6135068094032304,70,255,255,255
366,7.320119984000485,14.078717555106989,2.584533395219417,-11.467891277308611,2.244198044112598,1.4112910732116517,-0.20023374301000793,0.02287312634438443,0.26540697991545525,0.00010635194172375906,0.6153914886031636,70,255,255,255
367,7.340107635001914,14.12360226243054,2.6128605410213344,-11.471895900749026,2.244235366177521,1.41635729009585,-0.20023117202071036,0.001866103246144668,0.2533108442099241,0.00012854946487775298,0.6171253934671022,70,255,255,255
368,7.360136261002481,14.168479947480394,2.6412843966155912,-11.475900477617657,2.243884252492755,1.4211927797128412,-0.20022884343154668,-0.01755568423829157,0.24177448084955833,0.0001164294581836034,0.6187205859419257,70,255,255,255
369,7.380092037001305,14.213343085780092,2.6698002994109173,-11.479904989234141,2.243156914984899,1.4257951397662958,-0.2002255808242234,-0.03636687539282235,0.23011800267272808,0.00016313036616399934,0.6201881630187633,70,255,255,255
370,7.40011342300204,14.258223891341474,2.6984285793985534,-11.483909438314862,2.24404027806909,1.4314139993818045,-0.20022245403601693,0.04416815420955755,0.28094298077543267,0.00015633941032364151,0.622236080708354,70,255,255,255
371,7.420087043999956,14.303113410427134,2.7271639873549027,-11.487913813052154,2.244475954282986,1.4367703978174735,-0.20021873686461175,0.02178381069478741,0.2678199217834487,0.00018585857025862906,0.6241201649827774,70,255,255,255
372,7.440081163000286,14.348003278175879,2.756001466145455,-11.491918109025125,2.244493387437248,1.4418739395276239,-0.20021479864851294,0.0008716577131031578,0.2551770855075213,0.00019691080494124713,0.625853522515247,70,255,255,255
373,7.460148534002656,14.392885865466734,2.7849362722152895,-11.495922345644797,2.244129364542734,1.446740303491725,-0.20021183098358022,-0.018201144725709106,0.2433181982050574,0.00014838324663496438,0.6274482114451189,70,255,255,255
374,7.480077691001497,14.437753570289903,2.8139634636006132,-11.499926497024015,2.2433852411584367,1.4513595692661854,-0.20020756896095127,-0.03720616921485398,0.2309632887230162,0.00021310113144809573,0.6289153252606011,70,255,255,255
375,7.500106465999124,14.48263865033688,2.8431003019657775,-11.503930564801403,2.2442540023487862,1.4568419182582106,-0.20020338886935604,0.043438059517466154,0.2741174496012593,0.00020900457976114062,0.630963021295357,70,255,255,255
376,7.520079822999833,14.52753216170856,2.8723415265636567,-11.507934538958864,2.24467556858407,1.4620612298939677,-0.20019870787307684,0.021078311764180402,0.26096558178785,0.00023404981395971913,0.6328469016473324,70,255,255,255
377,7.540085724001983,14.572425787790477,2.9016821033811424,-11.511938420643265,2.244681304095846,1.4670288408742924,-0.20019408422001198,0.0002867755888087409,0.24838054901624051,0.0002311826532428174,0.6345800715711498,70,255,255,255
378,7.560112167000625,14.61731177651588,2.9311171907841365,-11.515942217654052,2.244299436270145,1.4717543701496951,-0.2001898505393572,-0.019093391285053052,0.2362764637701309,0.0002116840327388292,0.6361745879010618,70,255,255,255
379,7.580154926999967,14.662182905376197,2.960642125581232,-11.519945942679625,2.243556443015849,1.4762467398547738,-0.2001862512786681,-0.03714966271482645,0.22461848525394057,0.00017996303445524942,0.6376415429245809,70,255,255,255
380,7.600100924999424,14.707071311618732,2.9902711865565506,-11.523949580179217,2.244420312126776,1.4814530487659252,-0.20018187497956075,0.043193455546355786,0.260315445557566,0.00021881495536799078,0.6396893083211527,70,255,255,255
381,7.620110816002125,14.751968168801774,3.019999384686923,-11.527953132749506,2.244842859152077,1.4864099065186223,-0.20017762851447568,0.021127351265041838,0.24784288763485307,0.00021232325425368792,0.6415732524859987,70,255,255,255
382,7.640097568000783,14.796865092503793,3.04982181539592,-11.531956595562779,2.2448461851010015,1.4911215354498262,-0.2001731406636512,0.0001662974462357525,0.23558144656019375,0.000224392541225249,0.6433064811176571,70,255,255,255
383,7.660163649001333,14.841754455114932,3.079733910541629,-11.535959989609875,2.244468130556917,1.4956047572854416,-0.20016970235482304,-0.018902727204214376,0.22416109178077748,0.00017191544140796045,0.6449010514587828,70,255,255,255
384,7.680141486001958,14.886628816398867,3.10973101799378,-11.53996330649413,2.2437180641966865,1.4998553726075436,-0.20016584421276684,-0.03750331801152251,0.21253076610509813,0.00019290710280914225,0.6463680561726185,70,255,255,255
385,7.700163778001297,14.93152062575771,3.139824925311591,-11.543966555683898,2.244590467942103,1.504695365890557,-0.20016245948844022,0.043620187270819955,0.24199966415067542,0.00016923621633069263,0.6484163367219943,70,255,255,255
386,7.720132366001053,14.97642090889359,3.170010878302144,-11.547969725990306,2.245014156794048,1.5092976495276547,-0.20015851532038778,0.021184442597247166,0.23011418185487686,0.00019720840262230088,0.65030075482742,70,255,255,255
387,7.740155621999293,15.021321391346065,3.200284395456937,-11.551972824515785,2.245024122623724,1.5136758577396543,-0.20015492627387776,0.0004982914838049801,0.21891041059998173,0.0001794523255012892,0.6520344194844117,70,255,255,255
388,7.760189185002673,15.066214327785824,3.2306411494525245,-11.555975861349708,2.2446468219879625,1.517837699779375,-0.20015184169617412,-0.018865031788077413,0.20809210198603978,0.00015422888518190625,0.653629390968844,70,255,255,255
389,7.780083887002547,15.111092005321726,3.2610765972623272,-11.559978801639277,2.2438838767951457,1.5217723904901306,-0.20014701447841682,-0.03814725964083454,0.19673453553777898,0.0002413608878654716,0.6550967647345217,70,255,255,255
390,7.80008441300015,15.15598680866351,3.291599919585796,-11.563981650686769,2.2447401670891924,1.526166116173448,-0.20014245237455724,0.04281451470234865,0.21968628416587888,0.00022810519297905563,0.6571444144923173,70,255,255,255
391,7.820170587001485,15.20089015433428,3.3222071427562767,-11.567984436983911,2.2451672835384677,1.5303611585240304,-0.20013931485715128,0.021355822463755558,0.20975211752912015,0.00015687587029761252,0.6590282522694892,70,255,255,255
392,7.840114304999588,15.245793504338817,3.3528940417082724,-11.57198714182741,2.245167500226821,1.5343449475997775,-0.2001352421749879,1.083441767590898e-05,0.19918945378735575,0.00020363410816828798,0.6607613830244874,70,255,255,255
393,7.860104892999516,15.290688982938686,3.3836566343888927,-11.575989762764896,2.244773929993499,1.5381296340310089,-0.2001310468742733,-0.019678511666110232,0.18923432156157127,0.000209765035730336,0.6623558633190857,70,255,255,255
394,7.880115808999108,15.335569264583608,3.414491107298184,-11.579992304130348,2.2440140822461214,1.5417236454645622,-0.20012706827259605,-0.03799238736888677,0.17970057167766407,0.00019893008386195898,0.6638227851901162,70,255,255,255
395,7.900155868999718,15.380466589869219,3.445404053477609,-11.583994751613664,2.244866264280559,1.5456473089712364,-0.2001223741657862,0.04260910172186039,0.19618317533370822,0.00023470534049166436,0.6658703765505148,70,255,255,255
396,7.920177271000284,15.425372168943023,3.476391918848048,-11.587997113780439,2.2452789536901716,1.5493932685219582,-0.2001181083387288,0.020634470480633826,0.1872979775360899,0.00021329135287057044,0.6677541606020817,70,255,255,255
397,7.940088398001535,15.470277373257613,3.5074509639241214,-11.591999363530839,2.245260215729503,1.5529522538036786,-0.20011248751997288,-0.00093689803341368,0.17794926408602185,0.000281040937796212,0.6694872419295231,70,255,255,255
398,7.96011746899967,15.515174469998833,3.5385778578699263,-11.596001513312965,2.2448548370610095,1.5563446972902533,-0.20010748910628043,-0.02026893342469238,0.1696221743287294,0.0002499206846226232,0.6710816767507692,70,255,255,255
399,7.9801745700024185,15.560056292989508,3.569769432002672,-11.600003583957582,2.2440911495337676,1.559578706637266,-0.20010353223088345,-0.03818437636210126,0.1617004673506326,0.0001978437698491875,0.6725485567863158,70,255,255,255
400,8.000106113999209,15.604955160214137,3.6010299970540256,-11.60400556608711,2.2449433612314755,1.5630282525676928,-0.20009910647641732,0.042610584885403924,0.17247729652133992,0.0002212877233063737,0.6745961127787324,70,255,255,255
401,8.020072111001355,15.649862102021531,3.6323565104448634,-11.608007450960088,2.245347090369694,1.5663256695418954,-0.20009424364889128,0.02018645691092713,0.1648708487101349,0.00024314137630260246,0.6764798642917558,70,255,255,255
402,8.040103367999109,15.694768882852225,3.6637461737017594,-11.61200925139835,2.2453390415346686,1.5694831628448038,-0.20009002191314265,-0.00040244175127179815,0.15787466514542392,0.00021108678743164688,0.6782129156837373,70,255,255,255
403,8.06018535000112,15.739667923857898,3.6951963850780216,-11.61601099582152,2.244952050283611,1.5725105688131036,-0.20008722115851016,-0.01934956255287723,0.15137029841498784,0.00014003773162471478,0.6798073229643603,70,255,255,255
404,8.08014419599931,15.784551719269635,3.7267042868214935,-11.620012671630146,2.2441897705868734,1.5753950871735847,-0.200083790431273,-0.038113984836878334,0.1442259180240506,0.0001715363618573218,0.6812741776625335,70,255,255,255
405,8.100110457002302,15.829452988124345,3.758304146933785,-11.624014302237086,2.2450634427354856,1.5799930056145843,-0.20008153034694218,0.04368360743061617,0.2298959220499841,0.00011300421654170112,0.6833225610180198,70,255,255,255
406,8.120150090002426,15.874362966810882,3.78999183238075,-11.628015900428029,2.245498934326824,1.584384272348251,-0.200079909547118,0.02177457956692308,0.21956333668334138,8.103999120881444e-05,0.6852070737050672,70,255,255,255
407,8.140174402000412,15.91927335457183,3.821763277876559,-11.632017473370668,2.2455193880474367,1.5885722747904443,-0.20007864713197562,0.0010226860306485897,0.2094001221096582,6.312075711831233e-05,0.6869408253771507,70,255,255,255
408,8.16008637699997,15.964175988562307,3.8536142368504587,-11.636018991895195,2.2451316995238666,1.5925479486949943,-0.2000759262263236,-0.019384426178512548,0.1987836952274995,0.00013604528260005577,0.6885358769154677,70,255,255,255
409,8.180157866001537,16.009063718558963,3.8855410037767326,-11.640020479713536,2.244386499832723,1.5963383463137064,-0.20007439091707355,-0.03725998455717994,0.18951988093560757,7.676546250348637e-05,0.6900033243307192,70,255,255,255
410,8.200186250000115,16.0539684743992,3.9175732257624665,-11.644021887642115,2.2452377920118036,1.6016110992866923,-0.20007039642896357,0.042564608954025474,0.26363764864928974,0.00019972440549811954,0.6920507773519563,70,255,255,255
411,8.220145728999341,16.098881257255854,3.949705698463039,-11.648023205254912,2.245639142832797,1.606623635028627,-0.2000658806398416,0.020067541049650917,0.25062678709673203,0.00022578945609891266,0.6939344341314945,70,255,255,255
412,8.240147832999355,16.143793731788175,3.9819334812431615,-11.652024436535973,2.245623726616,1.6113891390061152,-0.20006156405304337,-0.0007708108398425395,0.23827519887441917,0.00021582933991176612,0.6956673983686695,70,255,255,255
413,8.260114895001607,16.188697951134774,4.014251685457856,-11.656025574154993,2.2452109673299856,1.6159102107347083,-0.20005688095100413,-0.020637964300723066,0.22605358642964957,0.0002341551019627297,0.6972617254668706,70,255,255,255
414,8.28009565100001,16.23358650227504,4.0466556070401705,-11.660026615753424,2.244427557013149,1.620196079115727,-0.20005207992154006,-0.039170515841843834,0.21429341905093247,0.00024005147320363407,0.6987285063972156,70,255,255,255
415,8.30010871000195,16.27849232808844,4.079172092245444,-11.664027605716823,2.2452912906701035,1.625824260263658,-0.20004949816995402,0.04318668284771876,0.28140905739653954,0.00012908757930174541,0.7007763230642269,70,255,255,255
416,8.320171458999539,16.323406743570082,4.111795648613582,-11.66802856563903,2.2457207740821827,1.6311778184069348,-0.20004799611035257,0.02147417060395762,0.2676779071638402,7.510298007293303e-05,0.7026603143978772,70,255,255,255
417,8.340119880002021,16.368321205222312,4.144520638256973,-11.672029479281361,2.245723082611403,1.6362494821695384,-0.20004568211659032,0.0001154264610070399,0.2535831881301791,0.00011569968811259157,0.7043935864248355,70,255,255,255
418,8.36018230800255,16.413228046905846,4.177341902076698,-11.676030367935743,2.245342084176776,1.641063190986291,-0.20004443271907588,-0.019049921731343566,0.24068544083762933,6.246987572181006e-05,0.7059881966896372,70,255,255,255
419,8.380113410999911,16.45811965440171,4.210254087674867,-11.680031209632563,2.244580374793122,1.6456092799084758,-0.20004208484101957,-0.03808546918270972,0.22730444610924305,0.00011739390281587103,0.7074552381332547,70,255,255,255
420,8.400161404002574,16.503028628171187,4.2432804263770585,-11.684032013182403,2.245448688473849,1.6513169351095462,-0.20004017749193403,0.043415684036359536,0.28538276005351926,9.536745427643489e-05,0.7095032409118203,70,255,255,255
421,8.420195915001386,16.547946182315027,4.276415080868626,-11.688032790631919,2.2458777071919847,1.656732724578342,-0.20003887247578747,0.021450935906766055,0.2707894734397869,6.525080732844302e-05,0.7113874034681005,70,255,255,255
422,8.440148338999279,16.59286378168093,4.309652170113567,-11.692033527078891,2.2458799682951875,1.661854462247065,-0.2000368223486147,0.00011305516014159522,0.2560868834361487,0.00010250635863948143,0.7131208330198783,70,255,255,255
423,8.460179404002702,16.637773654804597,4.342986213434357,-11.696034233745959,2.2454936561834735,1.6667021660395211,-0.20003533335336923,-0.019315605585696893,0.24238518962281153,7.444976227372058e-05,0.7147155882075139,70,255,255,255
424,8.480144580000342,16.682668298026762,4.37641172675385,-11.700034900145567,2.2447321611081916,1.6712756659746295,-0.20003331998043533,-0.03807475376410352,0.2286749967554178,0.00010066864669508457,0.7161827629801386,70,255,255,255
425,8.500172443000338,16.727580179401745,4.409948753161881,-11.704035522785286,2.2455940687491873,1.6768513204015427,-0.2000311319859441,0.04309538204979102,0.2787827213456622,0.0001093997245609768,0.7182304723767846,70,255,255,255
426,8.52016917900255,16.772500395185386,4.443591334793927,-11.708036102250006,2.246010789182079,1.6821290816023224,-0.2000289732359803,0.020836021644575986,0.263888060038981,0.00010793749819118514,0.720114365021699,70,255,255,255
427,8.540128501001163,16.81742044279831,4.477333600600942,-11.712036627186121,2.246002380646084,1.6871132903507289,-0.20002624680581454,-0.00042042679976095343,0.24921043742032278,0.00013632150828685186,0.7218475462550202,70,255,255,255
428,8.560112146002211,16.862332407918576,4.511169938461973,-11.716037094791853,2.2455982560133823,1.6918168930515562,-0.2000233802865862,-0.02020623163508306,0.23518013504137336,0.0001433259614173621,0.7234420729896758,70,255,255,255
429,8.580221824002365,16.907229267321156,4.545095265284359,-11.720037542855813,2.2448429701290458,1.6962663411193075,-0.20002240319805553,-0.03776429421681904,0.22247240338756602,4.885442653398964e-05,0.7249090375855589,70,255,255,255
430,8.600143334999302,16.95214335636169,4.579126640260986,-11.724037952494408,2.24570445202673,1.7015687488313616,-0.20002048192968655,0.04307409488422209,0.26512038560269846,9.606341844881072e-05,0.7269566995430904,70,255,255,255
431,8.620177624001371,16.997065888444244,4.613258385638176,-11.728038336330215,2.246126604127642,1.7065872688594836,-0.20001919179036529,0.021107605045581845,0.2509260014061043,6.450696606344342e-05,0.7288405485440194,70,255,255,255
432,8.640088468000613,17.04198819563576,4.647484664008191,-11.732038666767345,2.2461153595757732,1.7113139185007546,-0.20001652185652652,-0.0005622275934293874,0.23633248206354684,0.00013349669193787883,0.7305736896248741,70,255,255,255
433,8.660075815001619,17.0869023752486,4.681800047494944,-11.73603894243206,2.2457089806418566,1.7157691743376255,-0.2000137832357639,-0.020318946695839557,0.22276279184354242,0.00013693103813106067,0.7321681794192605,70,255,255,255
434,8.680149551000795,17.131801288205295,4.71619952907344,-11.740039189765161,2.244945647834816,1.7199740789247797,-0.20001236665505653,-0.03816664035203443,0.2102452293577033,7.08290353684804e-05,0.7336351100300958,70,255,255,255
435,8.700113143000635,17.17671776334144,4.750697881073561,-11.744039434539932,2.245823756807164,1.7249176000060655,-0.2000122387384904,0.043905448617408194,0.24717605406429177,6.395828307609319e-06,0.7356833951221022,70,255,255,255
436,8.720167023002432,17.221643052982053,4.785289805412481,-11.74803969375983,2.2462644820305675,1.729596216946004,-0.20001296099496535,0.02203626117015922,0.23393084699691857,-3.611282374826885e-05,0.7375678174067481,70,255,255,255
437,8.740081050000299,17.266568472679833,4.819969782815351,-11.75203993863204,2.246270984888976,1.733998870143479,-0.20001224361042583,0.00032514292043384074,0.22013265987375497,3.586922697673689e-05,0.7393014859086224,70,255,255,255
438,8.760133857002074,17.31148630294224,4.854732870652846,-11.756040186523864,2.245891513120342,1.7381543918747895,-0.2000123945912103,-0.018973588431708155,0.20777608656553004,-7.549039223980758e-06,0.7408964609303467,70,255,255,255
439,8.780101134001598,17.356389025893375,4.889574051754769,-11.760040426386139,2.245136147556757,1.7420590550961472,-0.2000119931137941,-0.03776827817924566,0.1952331610678899,2.007387080962819e-05,0.742363837950333,70,255,255,255
440,8.800191166999866,17.40130916538636,4.924505292528205,-11.76404065686822,2.2460069746491906,1.7465620386717962,-0.20001152410406453,0.04354135462168651,0.22514917878245178,2.3450486478920896e-05,0.7444118410664772,70,255,255,255
441,8.820077932999993,17.44623744185669,4.9595213019266655,-11.768040841929267,2.2464138235166597,1.750800469923024,-0.20000925305235423,0.02034244337346669,0.21192156256138683,0.00011355258551537517,0.7462960039333297,70,255,255,255
442,8.840138825002214,17.491165676697786,4.994617461087609,-11.772041003483885,2.2464117420548098,1.7548079580471632,-0.20000807773089832,-0.00010407309251014851,0.20037440620696145,5.876607279581281e-05,0.7480294337708341,70,255,255,255
443,8.860125798000809,17.53608594554525,5.02978909187956,-11.776041138515332,2.246013442373158,1.7585815395975455,-0.2000067515723379,-0.019914984082579856,0.18867907751911894,6.630792802045371e-05,0.7496241892213381,70,255,255,255
444,8.880192879001697,17.580991068587743,5.06503190169404,-11.780041269864867,2.245256152124751,1.76214049072399,-0.20000656747678952,-0.03786451242036648,0.1779475563222277,9.20477741875314e-06,0.7510913642358018,70,255,255,255
445,8.900181208999129,17.625913492697972,5.1003553449404295,-11.784041388361485,2.2461212055115363,1.7661721623194762,-0.20000592483094748,0.043252669339259864,0.20158357977431285,3.2132292101694215e-05,0.7531391085869769,70,255,255,255
446,8.92017418999967,17.6708442814725,5.135755007334278,-11.788041492340689,2.2465394387263826,1.7699831196924094,-0.20000519896013522,0.02091166074231854,0.19054786864665685,3.6293540612741815e-05,0.7550230333900579,70,255,255,255
447,8.940127847999975,17.71577489547503,5.171226505503259,-11.792041567677714,2.2465307001264248,1.7735749084490593,-0.20000376685124024,-0.000436929997904123,0.1795894378324967,7.160544474796304e-05,0.7567562442088925,70,255,255,255
448,8.960106284001085,17.76069738720468,5.2067656747094055,-11.796041609070073,2.2461245864824395,1.7769584603073543,-0.20000206961793474,-0.020305682199255326,0.16917759291475298,8.486166527607586e-05,0.7583507981622204,70,255,255,255
449,8.980132029999368,17.80560445039825,5.2423686265671305,-11.800041626726937,2.2453531596784466,1.7801475928862567,-0.20000088284321133,-0.0385713401996437,0.1594566289451198,5.933873617106067e-05,0.759817787799282,70,255,255,255
450,9.00008764499944,17.850528736397614,5.278042688066827,-11.804041631351385,2.246214299968161,1.7837030749848173,-0.20000023122243366,0.04305701448571897,0.17777410492803503,3.258103888331698e-05,0.7618654096835991,70,255,255,255
451,9.020112964000873,17.89546141399763,5.313784188144279,-11.808041631820045,2.246633880000773,1.787075003872613,-0.20000002343296977,0.020979001630586414,0.16859644438979116,1.0389473193705978e-05,0.7637492218171709,70,255,255,255
452,9.040109018002113,17.940394074790902,5.349589483812601,-11.812041627118793,2.246633039663625,1.7902647834161045,-0.19999976493740074,-4.2016857395132945e-05,0.15948897717456822,1.2924778451800512e-05,0.7654823289800569,70,255,255,255
453,9.0601287089994,17.98531889053976,5.385455116667014,-11.816041623866466,2.2462407874428103,1.793281642720675,-0.19999983738362265,-0.019612611040739747,0.15084296522853013,-3.622311095019537e-06,0.767076787569912,70,255,255,255
454,9.080156423002336,18.030228540926476,5.421377762374224,-11.820041630849813,2.2454825193358054,1.7961322853605008,-0.20000034916730428,-0.037913405350237905,0.14253213199129133,-2.558918408096522e-05,0.7685436894725788,70,255,255,255
455,9.10019496500172,18.075155656293067,5.45739437218976,-11.824041652509438,2.2463557683296,1.8008304907767945,-0.2000010829812376,0.043662449689716,0.23491027081468485,-3.669069666600855e-05,0.7705919616060748,70,255,255,255
456,9.12016063700139,18.120091195506554,5.493499823359568,-11.82804167694515,2.246776960674387,1.805272558490421,-0.20000122178555965,0.021059617239339357,0.2221033856813326,-6.940216103840102e-06,0.7724763719688912,70,255,255,255
457,9.140250594002282,18.165027044135783,5.52968952027675,-11.832041732737524,2.24679243146155,1.8094848458591095,-0.2000027896187798,0.0007735393581622674,0.21061436843442172,-7.839166100692685e-05,0.7742100295026823,70,255,255,255
458,9.160087460000796,18.209954764229202,5.565958271255948,-11.836041765713016,2.2463860046709074,1.8134375489598846,-0.20000164877459287,-0.020321339532138438,0.19763515503875273,5.70422093458256e-05,0.77580499443377,70,255,255,255
459,9.180093170001783,18.25486697741881,5.602301561313955,-11.840041779015078,2.2456106594803877,1.817164502900387,-0.20000066510303355,-0.03876725952598914,0.1863476970251141,4.918357796521167e-05,0.7772723621703708,70,255,255,255
460,9.200078018002387,18.29979614931499,5.6387522327395265,-11.84404176901019,2.2464585948090052,1.822533571278559,-0.1999994997556339,0.04239676643087975,0.2684534189086121,5.826736998182369e-05,0.7793196569665055,70,255,255,255
461,9.220077787002083,18.344733374981114,5.675304401783003,-11.848041737038859,2.246861283306163,1.8276084521738383,-0.1999984014334644,0.02013442485788186,0.2537440447639545,5.491610847524475e-05,0.7812031681789494,70,255,255,255
462,9.24008363699977,18.389670290349912,5.711952393226246,-11.852041686342224,2.2468457684398313,1.8323995721621507,-0.1999974651682946,-0.0007757433165900274,0.23955599941562,4.6813258488681564e-05,0.7829359984943979,70,255,255,255
463,9.26012758700017,18.43459915561463,5.748690831216463,-11.85604163218892,2.2464432632360394,1.8369218995107954,-0.1999972923347721,-0.020125260189589156,0.2261163674322333,8.641676125881181e-06,0.7845302023846105,70,255,255,255
464,9.280161925002176,18.479512677478702,5.785514489439401,-11.86004158586115,2.2456760932036186,1.8411829111469222,-0.19999768361155748,-0.03835850162104304,0.21305058180634528,-1.956383927004257e-05,0.785996869963606,70,255,255,255
465,9.300210337001772,18.5244430982454,5.82245239994596,-11.86404151736063,2.2465210383347736,1.8468955253279369,-0.199996574973923,0.042247256557741864,0.2856307090507373,5.543188172421609e-05,0.7880442757837743,70,255,255,255
466,9.320150973002455,18.569381325342537,5.85949795110428,-11.868041409130841,2.2469113548568327,1.8522775579159942,-0.1999945885105992,0.019515826102955547,0.2691016294028694,9.932316619057358e-05,0.7899278891383292,70,255,255,255
467,9.340178918002493,18.614319078650933,5.896645015590583,-11.87204127267111,2.2468876654198033,1.8573532243151718,-0.19999317701345845,-0.001184471851468416,0.25378331995887726,7.05748570372089e-05,0.7916608134245198,70,255,255,255
468,9.3601426919995,18.65924837026941,5.933887480323621,-11.876041098301247,2.246464580923845,1.862123236651885,-0.19999128150687678,-0.02115422479791862,0.2385006168356627,9.477532908322428e-05,0.793255103767815,70,255,255,255
469,9.380094145002658,18.704161665682385,5.9712194096988345,-11.880040873039814,2.2456647706486716,1.8665964687606404,-0.19998873692832958,-0.03999051375867646,0.22366160543777136,0.0001272289273602789,0.7947218508836467,70,255,255,255
470,9.400076187001105,18.749092031480927,6.008667285981078,-11.884040648390963,2.24651828992721,1.8723938141121925,-0.19998876755743952,0.04267596392690187,0.2898672675776055,-1.5314554965006888e-06,0.7967696279241254,70,255,255,255
471,9.420115988999896,18.794030682223028,6.046224516530256,-11.888040437414016,2.246932537104959,1.877861527458918,-0.19998945115269154,0.0207123588874496,0.27338566733627356,-3.417976260133848e-05,0.7986535828013659,70,255,255,255
472,9.440075422000518,18.838969089156482,6.083884487543686,-11.892040226644784,2.2469203466727743,1.8829985506714835,-0.19998946153839423,-0.000609521609222341,0.2568511606282704,-5.192851349478111e-07,0.8003868212884271,70,255,255,255
473,9.460143164000328,18.883899582233116,6.1216411434612565,-11.896040038085474,2.246524653831814,1.8878327958785535,-0.19999057203449017,-0.019784642048004564,0.24171226035350402,-5.552480479664723e-05,0.8019814006965233,70,255,255,255
474,9.480138416001864,18.928814732301824,6.159488419306899,-11.900039869185825,2.2457575034354265,1.8923637922821226,-0.19999155501758986,-0.038357519819375074,0.22654982017845415,-4.914915498507866e-05,0.803448413751972,70,255,255,255
475,9.500150570002006,18.97374693009105,6.197449107758105,-11.904039705517139,2.2466098894613356,1.8980344225602954,-0.1999918165656715,0.04261930129544966,0.2835315139086405,-1.3077404082018074e-05,0.8054963369574811,70,255,255,255
476,9.520104196002649,19.018687112824303,6.235516327155084,-11.908039532187747,2.247009136662655,1.9033609698489162,-0.19999133353037346,0.019962360065958418,0.2663273644310433,2.415176490139226e-05,0.8073804263065496,70,255,255,255
477,9.540131616999133,19.063626984859756,6.273683662629251,-11.912039358829336,2.246993601772672,1.9083667737083452,-0.19999133207948844,-0.0007767444991344519,0.2502901929714485,7.254425093972117e-08,0.8091137885076926,70,255,255,255
478,9.56013685400103,19.108558677802428,6.311944856577765,-11.916039187396864,2.2465846471335555,1.913059697425663,-0.19999142837635972,-0.020447731955825166,0.23464618586589636,-4.814843564349136e-06,0.8107084817327441,70,255,255,255
479,9.580124172000069,19.15347475110677,6.35029382220557,-11.920039013990824,2.2458036652172186,1.9174482813902542,-0.1999913296980011,-0.03904909581685212,0.21942919822955398,4.933917930799447e-06,0.8121755994997916,70,255,255,255
480,9.600197346000641,19.19840771600993,6.388750621911186,-11.92403883932132,2.2466482451578025,1.922839985280772,-0.19999126652482804,0.042228997029200244,0.26958519452588847,3.1586586524967597e-06,0.8142233021091067,70,255,255,255
481,9.62018517800243,19.243348627334527,6.4273086584047965,-11.928038659849872,2.247045566229985,1.9279018246805646,-0.19999102642763433,0.01986605360912863,0.2530919699896308,1.200485968555487e-05,0.8161071885096766,70,255,255,255
482,9.640122435001103,19.28828890205956,6.4659614128861405,-11.932038456073991,2.2470137362516565,1.932637724067212,-0.1999898112059668,-0.0015914989164245164,0.23679496933236277,6.0761083376742464e-05,0.8178403639982009,70,255,255,255
483,9.660175862001779,19.333220844907842,6.504702963014332,-11.936038246874626,2.2465971424141333,1.937077506409599,-0.1999895400316806,-0.020829691876163903,0.22198911711936242,1.3558714310135667e-05,0.8194348854476433,70,255,255,255
484,9.680093218001275,19.37813680022262,6.543527181698883,-11.940038006465821,2.245797765738918,1.9412109342275419,-0.19998797955979272,-0.039968833760758216,0.20667139089713582,7.802359439423867e-05,0.8209018451811303,70,255,255,255
485,9.70011428900034,19.423069608723853,6.582451771733363,-11.944037769105119,2.246640425061577,1.946229501724033,-0.1999881319648962,0.042132966132926164,0.25092837482455943,-7.6202551746729075e-06,0.8229495510248337,70,255,255,255
486,9.720114923002257,19.468010368755554,6.621470514449374,-11.94803753519229,2.247038001585084,1.95093713580056,-0.1999883043585803,0.019878826175354636,0.23538170382635415,-8.61968420537429e-06,0.8248334404010409,70,255,255,255
487,9.740087578000384,19.51295061050584,6.660577326806119,-11.952037296144322,2.247012087514345,1.9553406178372548,-0.1999880476016397,-0.0012957035369449699,0.2201741018347303,1.2837847029684157e-05,0.8265666186271514,70,255,255,255
488,9.760083863002365,19.557882448796803,6.699766423182524,-11.956037051463001,2.2465919145481443,1.9594548188202523,-0.19998776593398468,-0.021008648310030686,0.20571004914987157,1.4083382751800544e-05,0.8281611425951731,70,255,255,255
489,9.78008864200092,19.602798512187533,6.739032259806133,-11.960036803407098,2.2458031695364076,1.9632918311804646,-0.1999875972048715,-0.03943725058684677,0.19185061801061365,8.436455659038833e-06,0.8296281046457531,70,255,255,255
490,9.800115639001888,19.64773160238566,6.778389958858793,-11.964036581374698,2.2466545099064836,1.9678849526329887,-0.19998889837997783,0.042567018503812726,0.22965607262620158,-6.505875531589989e-05,0.8316762906738568,70,255,255,255
491,9.820081253001263,19.69267269480323,6.817833649839882,-11.96803637315612,2.247054620878405,1.9721845490544547,-0.19998958907115974,0.020005548596070177,0.21497982107330493,-3.4534559095494854e-05,0.8335606218197122,70,255,255,255
492,9.840082730999711,19.737613408288794,6.857357789363744,-11.972036178728647,2.2470356742783575,1.9762069761930767,-0.1999902786263321,-0.0009473300023721265,0.20112135693109812,-3.447775861817326e-05,0.8352942064738992,70,255,255,255
493,9.860076389999449,19.782545840145502,6.896957013409264,-11.976035995546775,2.246621592835426,1.9799612022760291,-0.19999084090638783,-0.020704072146591646,0.18771130414761772,-2.8114002787488213e-05,0.8368891043557511,70,255,255,255
494,9.880116717002238,19.82746272442652,6.936626306015488,-11.9800358361335,2.2458442140509796,1.9834646303111954,-0.19999202933623453,-0.03886893922231538,0.1751714017583157,-5.942149233487126e-05,0.838356410407055,70,255,255,255
495,9.9001260010009,19.872396307216587,6.976377846573783,-11.984035681179845,2.246679139503187,1.9875770279147469,-0.1999922523173388,0.04174627261038566,0.20561988017758126,-1.1149055214099146e-05,0.8404040754928791,70,255,255,255
496,9.920098197999323,19.917337603903082,7.016206370705423,-11.988035521769202,2.2470648343248047,1.991426206582,-0.19999202946784395,0.01928474108089251,0.1924589333626645,1.1142474742570352e-05,0.8422879273718373,70,255,255,255
497,9.940082510001957,19.962278195375934,7.056106845101654,-11.992035353403887,2.2470295736426276,1.9950237198115721,-0.19999158173421241,-0.0017630341088672452,0.17987566147859702,2.2386681577085676e-05,0.8440210711004789,70,255,255,255
498,9.96012127100039,20.0072103430368,7.096074595829088,-11.996035189294084,2.246607383043302,1.9983875363716916,-0.1999917945097988,-0.021109529966287344,0.1681908280059714,-1.0638779318783431e-05,0.845615563330829,70,255,255,255
499,9.980090819000907,20.05212656463174,7.1361049024778165,-12.000035019702397,2.245811079747149,2.001515332436401,-0.19999152041564267,-0.03981516480763414,0.15638980323546314,1.3704707806538874e-05,0.8470824961827512,70,255,255,255
500,10.000125891001517,20.097059112358526,7.176207643574189,-12.004034829194847,2.246627386339204,2.00513705481864,-0.19999047462249414,0.04081532960272938,0.1810861191119284,5.2289657425708125e-05,0.8491296106777814,70,255,255,255
501,10.020102550999582,20.141999039884873,7.216378234475809,-12.008034611862398,2.246996376317283,2.0085295450809793,-0.1999891333775076,0.018449498903947426,0.1696245131169638,6.706224932789828e-05,0.851012956013209,70,255,255,255
502,10.041403775001527,20.18694216445557,7.2566164956969805,-12.012034786053954,2.2471562285348807,2.0119130610585563,-0.20000870957784725,0.007992610879885564,0.16917579887884449,-0.0009788100169825509,0.8527456337218026,70,255,255,255
503,10.060127196000394,20.23187630019584,7.2969139012147375,-12.016034919494091,2.2467067870135855,2.014870275887859,-0.20000667200682387,-0.02247207606475632,0.14786074146513606,0.00010187855116947087,0.8543396972137086,70,255,255,255
504,10.081059616000857,20.276797075562328,7.337269410788516,-12.020035312788789,2.2460387683244205,2.017775478688952,-0.20001966473485833,-0.0334009344582471,0.14526014005464694,-0.0006496364017227751,0.8558062356262621,70,255,255,255
505,10.100129359001585,20.321734129229846,7.377719969658462,-12.024035684032702,2.2468526833759213,2.0225279434973,-0.20001856219566577,0.04069575257504621,0.2376232404174039,5.512695962769931e-05,0.8578543049536757,70,255,255,255
506,10.12009366500206,20.366678470993666,7.418259679768481,-12.028036022532808,2.2472170881910065,2.026985505500991,-0.20001692500531926,0.018220240754270645,0.22287810018455678,8.185951732533892e-05,0.8597385287348961,70,255,255,255
507,10.14012030700178,20.411621837875586,7.458883055777432,-12.032036338237575,2.2471683440960364,2.031168800447499,-0.20001578523838068,-0.002437204748500399,0.20916474732539436,5.698834692938193e-05,0.8614720146136189,70,255,255,255
