idx,t,px,py,pz,vx,vy,vz,ax,ay,az,yaw,mode,ledr,ledg,ledb
0,6.609989213757217e-07,-2.95999897424488,-2.998000020754266,-10.00400009566408,2.0000214323197723,0.10000109801599234,-0.20000214323197654,0.0010716159886214882,5.358081357620392e-05,-0.00010716159886214882,2.3038102486584195e-08,70,255,255,255
1,0.020082437000382924,-2.9199978816735026,-2.9959999655976883,-10.008000204921219,2.0000546285688805,0.10000275782888593,-0.2000054628568874,0.00165981245541591,8.299064467923167e-05,-0.00016598124554204063,2.3038102486584195e-08,70,255,255,255
2,0.04007605799779412,-2.8799961871735644,-2.9939998803446746,-10.012000374371212,2.000084724996918,0.10000426265068506,-0.2000084724996911,0.001504821401871137,7.524108995614343e-05,-0.00015048214018500983,2.3038102486584195e-08,70,255,255,255
3,0.06012448600085918,-2.839993774602369,-2.9919997591880887,-10.01600061562833,2.000120628559768,0.10000605782930148,-0.2000120628559761,0.001795178142526943,8.975893082130426e-05,-0.0001795178142519338,2.3038102486584195e-08,70,255,255,255
4,0.0800665239985392,-2.7999908763827137,-2.9899996137490734,-10.020000905450296,2.000144910982781,0.10000727195077264,-0.20001449109827743,0.0012141211506349059,6.070607355734836e-05,-0.00012141211506594418,2.3038102486584195e-08,70,255,255,255
5,0.10010469899862073,-2.7599452128614854,-2.988029215236025,-10.024001254492783,2.0022831760614155,0.09851992565241854,-0.20001745212430624,0.10691325393173434,-0.07436731491770454,-0.00014805130144074363,0.0006998558694315124,70,255,255,255
6,0.12006898899926455,-2.719859537290411,-2.9860864169767747,-10.02800164721689,2.0042837785537366,0.09713991296252021,-0.20001963620538463,0.10003012461606797,-0.06900063449491686,-0.00010920405391884325,0.0013437020742542347,70,255,255,255
7,0.14010548399892286,-2.6797362706893955,-2.9841691442281792,-10.032002092051762,2.006163330050778,0.0958636374297709,-0.20002224174366431,0.09397757485207281,-0.06381377663746542,-0.00013027691398370678,0.0019360405826911306,70,255,255,255
8,0.16009432599821594,-2.6395779014523995,-2.9822754142796555,-10.036002581588459,2.007918461849803,0.09468649742619775,-0.20002447683484614,0.08775658995123115,-0.05885700017865718,-0.00011175455909195886,0.0024809920104530677,70,255,255,255
9,0.18009805700057768,-2.5993867771891535,-2.9804033230937286,-10.040003113555532,2.009556213162304,0.09360455929633828,-0.20002659835365905,0.08188756562506683,-0.05409690649297369,-0.00010607594064518389,0.002982347323994044,70,255,255,255
10,0.20010989000002155,-2.559122944871936,-2.9785819762688313,-10.044003666341931,2.013191615860872,0.09106734124486007,-0.20002763931996026,0.18177013492838912,-0.12686090257390997,-5.204831506011587e-05,0.004141282173765329,70,255,255,255
11,0.22011425899836468,-2.5187911751348984,-2.9768074018820574,-10.048004239212117,2.0165884868518833,0.08872871933868687,-0.20002864350934493,0.16984354955056125,-0.11693109530865994,-5.02094692336752e-05,0.005207502235554887,70,255,255,255
12,0.24010387499947683,-2.4783961082836052,-2.9750757943229758,-10.052004826721593,2.019753342564649,0.08658037795408861,-0.20002937547376937,0.15824278563827354,-0.1074170692299129,-3.6598221222344796e-05,0.006188424692401288,70,255,255,255
13,0.2600962110009277,-2.43794219877667,-2.9733835070485375,-10.056005424599505,2.022695475346777,0.0846143637219143,-0.20002989389559353,0.14710663910641175,-0.09830071160871569,-2.592109120858055e-05,0.00709087335269999,70,255,255,255
14,0.2800875069988251,-2.397433731281448,-2.9717270495955326,-10.060006028481862,2.0254233747610866,0.08282287265025519,-0.2000301941178417,0.13639497071546414,-0.08957455358295588,-1.5011112408563898e-05,0.007921126120174801,70,255,255,255
15,0.30007804399792803,-2.356831952410375,-2.9701352430428836,-10.064006642138827,2.030088943553648,0.07959032763244905,-0.2000306828482068,0.2332784396280787,-0.161627250890307,-2.443651825514981e-05,0.009383045295676067,70,255,255,255
16,0.32009631999972044,-2.31614336520899,-2.9686025908686053,-10.06800726985039,2.034429360069257,0.07663260871390576,-0.2000313855782215,0.21702082578044068,-0.14788594592716509,-3.513650073599939e-05,0.010728010937137218,70,255,255,255
17,0.34015118000024813,-2.275374104364632,-2.967123824084537,-10.07200792732414,2.0384630422179026,0.07393833920342638,-0.20003287368751857,0.2016841074322957,-0.134713475523969,-7.44054648535164e-05,0.011965379327281487,70,255,255,255
18,0.3601043529997696,-2.2345303909596317,-2.965693924778908,-10.076008596737747,2.0421856702500047,0.07149496528145347,-0.20003347068035024,0.18613140160509767,-0.12216869609864553,-2.9849641583673536e-05,0.013103758246214209,70,255,255,255
19,0.3801011750001635,-2.193618052258675,-2.964308088846482,-10.080009275286798,2.0456169350478435,0.06929179662129091,-0.20003392745252974,0.17156323989194178,-0.11015843300812808,-2.2838608975256358e-05,0.014151066851632312,70,255,255,255
20,0.40008039999884204,-2.152599362062426,-2.9629951330780613,-10.084009974143566,2.0509345098124316,0.06564778842103605,-0.20003494283840573,0.2658787382294028,-0.18220041001274262,-5.076929379912998e-05,0.015813163339578086,70,255,255,255
21,0.42014246599865146,-2.111482132753718,-2.9617482907292856,-10.088010710832538,2.055861465435414,0.062342117438790305,-0.20003683444858475,0.24634778114911837,-0.16528354911228743,-9.458050895125303e-05,0.017342292108488207,70,255,255,255
22,0.44009796399768675,-2.0702742066525945,-2.960561119154259,-10.092011467664438,2.0603963050561664,0.05935857875132687,-0.20003784159501978,0.22674198103762055,-0.14917693437317162,-5.0357321751015593e-05,0.018749090575885502,70,255,255,255
23,0.46009117900030105,-2.0289829799603547,-2.9594274583425624,-10.09601224004856,2.064561334612002,0.05668304058483019,-0.20003861920615856,0.2082514777917841,-0.13377690832483397,-3.888055693951342e-05,0.02004334516589101,70,255,255,255
24,0.48011507100090967,-1.9876154402207706,-2.958341425394369,-10.1000130334614,2.0683769869792057,0.05430164740966592,-0.20003967064190895,0.19078261836018706,-0.11906965875821324,-5.257178751885694e-05,0.021234059388696103,70,255,255,255
25,0.5000855619982758,-1.9461353734041145,-2.957332027643861,-10.104013798289849,2.0740033408328045,0.05046988752539419,-0.20003824142245494,0.2813176926799379,-0.1915879942135863,7.146097270008256e-05,0.023026863055564176,70,255,255,255
26,0.520155694001005,-1.9045516748195086,-2.9563914647837604,-10.108014557467488,2.0791849292302915,0.04702814300504155,-0.2000379588819359,0.2590794198743507,-0.172087226017632,1.412702595218751e-05,0.024676242429082798,70,255,255,255
27,0.5400836049993814,-1.8628733269755706,-2.955512328525277,-10.1120152870502,2.083917392196901,0.04395681292418047,-0.20003647913561087,0.2366231483304766,-0.15356650404305405,7.398731625171684e-05,0.026193671452719912,70,255,255,255
28,0.5601405079978576,-1.8211085120948156,-2.9546875258337337,-10.11601600585531,2.0882407440377553,0.04124013457715747,-0.20003594025542407,0.21616759204270597,-0.13583391735115014,2.6944009340862385e-05,0.027589706154466077,70,255,255,255
29,0.580102567000722,-1.7792653633144524,-2.9539103250872776,-10.120016701238264,2.092157439018156,0.03886003732280508,-0.20003476914768553,0.19583474902003895,-0.11900486271761945,5.8555386927200415e-05,0.028874058080072557,70,255,255,255
30,0.6000915420008823,-1.7373077078992483,-2.9532101495731276,-10.12401737038522,2.0978827707602106,0.03500877570749921,-0.20003345734776562,0.286266587102745,-0.19256308076529338,6.558999599540205e-05,0.030753844495111485,70,255,255,255
31,0.6200742959990748,-1.6952456036831636,-2.952578382051419,-10.12801800828098,2.1031052108042365,0.03158837608543819,-0.20003189478805544,0.2611220022013043,-0.17101998110305078,7.812798550879685e-05,0.03248324799694729,70,255,255,255
32,0.6400719509983901,-1.6530886244649992,-2.9520068090489198,-10.132018615029585,2.1078489609082247,0.028578650124960893,-0.20003033743025606,0.2371875051994099,-0.15048629802386504,7.786788996869132e-05,0.03407429921863621,70,255,255,255
33,0.6601075190010306,-1.6108458000940202,-2.9514876038830327,-10.136019202910827,2.1121412185489428,0.025960258294358336,-0.20002939406207862,0.21461288203591167,-0.1309195915301279,4.716840887122875e-05,0.03553806634259005,70,255,255,255
34,0.6801255749996926,-1.5685258120191936,-2.95101333016702,-10.140019777894056,2.1159994037413257,0.023713685800637,-0.20002874916147104,0.19290925961913796,-0.11232862468606675,3.224503037979609e-05,0.03688473209662757,70,255,255,255
35,0.7001158099992608,-1.5260927721172406,-2.9506139908335385,-10.14402034152278,2.1216519950976505,0.01996696667408435,-0.20002818143622825,0.2826295678162434,-0.1873359563276325,2.838626213949591e-05,0.038822070747641255,70,255,255,255
36,0.7201883909983735,-1.4835571241024346,-2.9502802684706584,-10.148020916802382,2.126782400740298,0.016686118144010206,-0.2000287639801879,0.25652028213235845,-0.16404242650370726,-2.912719798281449e-05,0.04060442230657384,70,255,255,255
37,0.7401470439981495,-1.4409292138087713,-2.9500033307155498,-10.152021488882324,2.131395514683166,0.013846887755432588,-0.20002860399713812,0.23065569714339995,-0.1419615194288809,7.999152489085448e-06,0.04224418574079181,70,255,255,255
38,0.7600942259996373,-1.398218950647047,-2.949774787412206,-10.156022040137499,2.135513158086207,0.011427165167194596,-0.2000275627586998,0.20588217015204524,-0.12098612941189962,5.2061921916424225e-05,0.04375276810027235,70,255,255,255
39,0.7801218130007328,-1.355435523932001,-2.949586652510495,-10.160022579763222,2.1391713357523026,0.009406745085544668,-0.20002698128617138,0.1829088833047896,-0.10102100408249642,2.907362641976774e-05,0.04514066387099445,70,255,255,255
40,0.8001008389983326,-1.3125433022842818,-2.94946962285254,-10.16402310177946,2.144611082385963,0.0058514828977455375,-0.2000261008119187,0.27198733168303235,-0.17776310938995654,4.402371263315108e-05,0.04711557473917485,70,255,255,255
41,0.8201071099974797,-1.2695534208872887,-2.9494138570560042,-10.168023608414275,2.1494940698496503,0.0027882898267845963,-0.20002533174080855,0.24414937318435026,-0.15315965354804706,3.845355550721741e-05,0.048932492737900804,70,255,255,255
42,0.8401754019978398,-1.2264763046018123,-2.9494099883356864,-10.17202412163338,2.1538558142738142,0.00019343601589759743,-0.20002566095518545,0.21808722120819724,-0.12974269054434995,-1.6460718845312527e-05,0.0506040572967287,70,255,255,255
43,0.8601171209993481,-1.1833222974064137,-2.9494491653344195,-10.176024621570644,2.1577003597699314,-0.00195884993665643,-0.20002499686319555,0.19222727480586643,-0.10761429762770136,3.320459949515686e-05,0.05214189669085034,70,255,255,255
44,0.8801188559991715,-1.1401010536152012,-2.9495229816171817,-10.18002510877828,2.1610621895606217,-0.003690814138113744,-0.20002436038174118,0.1680914895345076,-0.08659821007286572,3.1824072718983354e-05,0.053556708933442256,70,255,255,255
45,0.9000923679996049,-1.096776881299061,-2.949662957402222,-10.18402558277045,2.1662086158070135,-0.006998789252015861,-0.2000236996085496,0.25732131231958366,-0.16539875569510587,3.3038659579542884e-05,0.055556583424258295,70,255,255,255
46,0.9200861229983275,-1.0533612948291986,-2.9498588204948932,-10.188026041583297,2.170779323493126,-0.009793154633553132,-0.20002294064235543,0.22853538430562814,-0.13971826907686358,3.794830970907381e-05,0.05739646795580907,70,255,255,255
47,0.9401319819990022,-1.0098650972443868,-2.950100809771454,-10.19202650006836,2.1748098792405908,-0.012099463828032815,-0.20002292425311594,0.20152778737323818,-0.11531545972398416,8.194619741386244e-07,0.05908916172483576,70,255,255,255
48,0.9601276869980211,-0.9662987328716615,-2.9503796912219187,-10.19602695613733,2.1783182186362655,-0.013944072523247569,-0.20002280344840997,0.1754169697837482,-0.09223043476073767,6.040235297433139e-06,0.06064643999234033,70,255,255,255
49,0.980187578999903,-0.9226719262468878,-2.9506867063347713,-10.200027428370898,2.181340331238683,-0.015350755642629051,-0.2000236116784991,0.1511056301208784,-0.07033415596907411,-4.041150445643904e-05,0.062079135998444536,70,255,255,255
50,1.0001242409998667,-0.8789491647858231,-2.951054221245526,-10.2040278875137,2.1861380730532347,-0.018375745537739272,-0.2000229571401166,0.23988709072756853,-0.15124949475551097,3.272691912584169e-05,0.06409541211335879,70,255,255,255
51,1.0201529010009835,-0.8351420704849789,-2.951471607586984,-10.208028342787753,2.1903547150422065,-0.020869317072893325,-0.20002276370263075,0.21083209944858972,-0.12467857675770266,9.671874291072857e-06,0.06595038613907989,70,255,255,255
52,1.0403101829979278,-0.7912612913632332,-2.9519287537330445,-10.212028844026982,2.1940389560872835,-0.022857307303036853,-0.20002506196142097,0.1842120522538515,-0.09939951150717641,-0.00011491293951107484,0.0676569622427433,70,255,255,255
53,1.0601161329977913,-0.7473180787164353,-2.9524162035864996,-10.216029325575493,2.1971606323398944,-0.024372492672744765,-0.20002407742554332,0.15608381263054572,-0.0757592684853956,4.922679388288942e-05,0.06922701225811363,70,255,255,255
54,1.0801320930004294,-0.7033224366243147,-2.9529249527144223,-10.220029792951452,2.199782104606027,-0.025437456396126937,-0.20002336879797958,0.1310736133066266,-0.053248186169108536,3.5431378187039675e-05,0.07067145827225435,70,255,255,255
55,1.100153365998267,-0.6592380932170029,-2.953444367672166,-10.224030269149251,2.204217170365592,-0.02597074788717687,-0.2000238098899517,0.22175328797826488,-0.0266645745524966,-2.2054598605963927e-05,0.07269903454582341,70,255,255,255
56,1.120135006000055,-0.6150769642748573,-2.9539659422196176,-10.228030747002464,2.2080564471072845,-0.026078727372594885,-0.20002389266061024,0.19196383708462594,-0.005398974270900747,-4.138532926994953e-06,0.07456440471750696,70,255,255,255
57,1.1429792659982922,-0.5708412131042808,-2.9544806691515033,-10.2320321358104,2.211787558528822,-0.025736346594294874,-0.200069440396744,0.18655557107686427,0.01711903891500055,-0.00227738680668807,0.07628054527545583,70,255,255,255
58,1.1601240649979445,-0.5265512308840535,-2.954982099343115,-10.236033465029362,2.2144991110113654,-0.02507150958058112,-0.20006646094806926,0.13557762412716423,0.033241850685687746,0.0001489724337373488,0.07785939458876878,70,255,255,255
59,1.180079540998122,-0.4822172779255062,-2.9554632022961114,-10.240034721860258,2.2166976479273663,-0.024055147649826466,-0.2000628415448009,0.10992684580004441,0.050818096537732727,0.00018097016341919736,0.07931193595701667,70,255,255,255
60,1.2001059600006556,-0.4378031491548545,-2.9559180795489217,-10.244035903136563,2.220706438532586,-0.0227438626405079,-0.2000590638152611,0.20043953026098493,0.06556425046592829,0.00018888647699003003,0.08134577035392375,70,255,255,255
61,1.220137058000546,-0.39332061821325803,-2.956339883788392,-10.248037021452872,2.224126547079823,-0.021090211973528963,-0.2000559158153875,0.17100542736184154,0.08268253334894693,0.00015739999367889168,0.08321689799907826,70,255,255,255
62,1.240106534998631,-0.3487810589540862,-2.9567222551228594,-10.252038069030116,2.2269779629585913,-0.019118566723372876,-0.20005237886217103,0.14257079393842664,0.09858226250780433,0.00017684766082382009,0.08493833543262042,70,255,255,255
63,1.260077831997478,-0.30419524822081184,-2.9570592776478266,-10.256039039251554,2.2292905366637155,-0.01685112624837353,-0.2000485110719496,0.11562868525620829,0.11337202374996713,0.00019338951107178426,0.08652205787147921,70,255,255,255
64,1.2800747889996273,-0.2595733081366476,-2.9573454531162993,-10.260039934232424,2.2310970042082143,-0.014308773423626775,-0.20004474904346078,0.09032337722493389,0.12711764123733782,0.00018810142444009026,0.08797908251522926,70,255,255,255
65,1.3000820019988168,-0.21487864872650722,-2.9575791788875696,-10.264040754237268,2.234732970507018,-0.011686288563506496,-0.20004100024220986,0.18179831494018206,0.13112424300601389,0.00018744006254570178,0.09001739779615907,70,255,255,255
66,1.3200805739979842,-0.17012314917460825,-2.957754907723993,-10.26804150199568,2.237774977594949,-0.008786441821153011,-0.2000373879206332,0.15210035439654812,0.14499233711767423,0.0001806160788337674,0.09189264785461447,70,255,255,255
67,1.3400702639992232,-0.12531810168073523,-2.9578675217125685,-10.272042177346835,2.2402523746936502,-0.005630699428771471,-0.20003376755769794,0.12386985493507208,0.157787119619077,0.0001810181467629679,0.09361787790839345,70,255,255,255
68,1.3601573999985703,-0.08047388836219893,-2.957912270457144,-10.276042811438124,2.2422106659268155,-0.0022374372287849754,-0.20003170456443603,0.09791456165825274,0.16966310999932477,0.00010314966309601936,0.09520508955787009,70,255,255,255
69,1.3800524600010249,-0.03560094571778092,-2.9578848770815283,-10.280043372149795,2.2436471322209006,0.0013696687808039051,-0.20002803558350593,0.07182331470424819,0.18035530047944404,0.00018344904650507976,0.09666532427538863,70,255,255,255
70,1.4000715319998562,0.009337838487652982,-2.957787656921752,-10.284043873919325,2.246939210271695,0.004861007988819577,-0.2000250884765017,0.16460390253971535,0.17456696040078357,0.0001473553502117919,0.09870690417000497,70,255,255,255
71,1.420070684998791,0.05433060899530971,-2.9576159946346943,-10.288044319209371,2.2496385253828364,0.008583114352880629,-0.2000222645023382,0.13496575555707457,0.18610531820305254,0.000141198708174195,0.10058515767305203,70,255,255,255
72,1.4401015699986601,0.09936623702624323,-2.9573656566878896,-10.29204472057944,2.2517814015466757,0.012516897340225522,-0.20002006850341877,0.10714380819197666,0.1966891493672447,0.00010979994597168363,0.10231315089585533,70,255,255,255
73,1.4600740889982262,0.14443400618500604,-2.957032815592418,-10.296045071228617,2.253388457938141,0.016642054773585352,-0.20001753245882198,0.08035281957325335,0.20625787166799148,0.0001268022298401006,0.10390290466083435,70,255,255,255
74,1.4800705939996988,0.1895238683892791,-2.956613994766945,-10.300045372520717,2.2544931102136525,0.020941041273632846,-0.20001506460499047,0.05523261377558686,0.21494932500237474,0.00012339269157607413,0.10536547812461507,70,255,255,255
75,1.5000858559978951,0.23467332150254414,-2.9561151201204177,-10.304045638110138,2.2574726556632525,0.024943732326368803,-0.2000132794710123,0.14897727248000225,0.2001345526367979,8.925669890796906e-05,0.10740941466516343,70,255,255,255
76,1.5201402370003052,0.27987072496448817,-2.955532165876245,-10.308045887116016,2.259870173097201,0.029147712208624384,-0.20001245029395778,0.11987587169742275,0.2101989941127791,4.1458852726355966e-05,0.10928983628246794,70,255,255,255
77,1.5401427520009747,0.32510489395665343,-2.9548615072303206,-10.312046120939758,2.261708449608264,0.03353293229621905,-0.20001169118706694,0.09191382555315775,0.21926100437973328,3.7955344542955904e-05,0.11101982417038808,70,255,255,255
78,1.560138681998069,0.3703652348528299,-2.9540998803549905,-10.316046338815772,2.263017044808825,0.03808134376650732,-0.20001089380064366,0.06542976002806089,0.22742057351441336,3.986932116364916e-05,0.11261141302727459,70,255,255,255
79,1.5810178219981026,0.4156445740413432,-2.953243938812075,-10.320046822677119,2.263966959425664,0.04279707714578724,-0.2000241930673252,0.04749573084194081,0.23578666896399592,-0.0006649633340769789,0.1140756747756102,70,255,255,255
80,1.60012837999966,0.460977423912301,-2.95230342583388,-10.32404725122058,2.2666424935478897,0.04702564890975084,-0.20002142717311389,0.13377670611127734,0.2114285881981801,0.00013829471056539533,0.11612078895008845,70,255,255,255
81,1.6201468510007544,0.5063521003721666,-2.951274670096635,-10.328047632990282,2.2687338229932803,0.0514377868622413,-0.20001908848509578,0.10456647226952498,0.2206068976245228,0.0001169344009052109,0.11800229399060846,70,255,255,255
82,1.6401439020010002,0.5517574849064706,-2.9501543727124924,-10.332047969238138,2.2702692267151976,0.05601486920711846,-0.20001681239278665,0.07677018609585762,0.2288541172438583,0.00011380461545648646,0.11973327862788687,70,255,255,255
83,1.6601041319991054,0.5971829591514857,-2.9489395980476543,-10.33604824943106,2.271273712250752,0.06073873324190215,-0.20001400964615723,0.05022427677773145,0.23619320173918412,0.00014013733147091867,0.12132578449418298,70,255,255,255
84,1.6800942820009368,0.642618605445783,-2.9476277224495027,-10.34004847333204,2.2717823147148652,0.0655937799075883,-0.20001119504892104,0.025430123205658628,0.2427523332843079,0.00014072986180957425,0.12279088989117541,70,255,255,255
85,1.7000918400008231,0.6881030284501641,-2.9462310267208656,-10.344048684255068,2.27422115021906,0.06983478643185931,-0.20001054615139405,0.12194177520974625,0.2120503262135507,3.244487634937454e-05,0.12483755960266639,70,255,255,255
86,1.720093755000562,0.7336245326132164,-2.94474595218056,-10.348048883254146,2.276075208152611,0.07425372701528521,-0.20000994995387228,0.09270289667754739,0.22094702917129505,2.9809876089109677e-05,0.1267204957372381,70,255,255,255
87,1.7400910600008501,0.7791720500347594,-2.9431692975825716,-10.352049069863911,2.277375871077151,0.07883272989941605,-0.2000093304882802,0.06503314622699063,0.2289501442065418,3.0973279604273873e-05,0.12845279698104403,70,255,255,255
88,1.7600850140006514,0.8247351245442087,-2.9414982021069456,-10.356049242594429,2.278153725472463,0.08355477378131054,-0.2000086365258392,0.038892719765609485,0.23610219409472477,3.4698122050119684e-05,0.13004651412534554,70,255,255,255
89,1.7800753629999235,0.8703038909138724,-2.939730129649729,-10.360049398913763,2.2784383184831842,0.08840362286081553,-0.2000078159666916,0.014229650536052851,0.24244245397524922,4.102795738061826e-05,0.1315127338981029,70,255,255,255
90,1.8000797620006779,0.9159165730628025,-2.937880307563715,-10.364049514354875,2.2806341074465037,0.0924911043006859,-0.20000577205558592,0.1097894481659849,0.2043740719935181,0.00010219555528334645,0.13355912294506714,70,255,255,255
91,1.8201109299989184,0.9615616554903991,-2.9359450616369367,-10.36804960115951,2.2822541213798284,0.09676229633891727,-0.2000043402318295,0.08100069666623044,0.21355960191156842,7.15911878213793e-05,0.13544180086827423,70,255,255,255
92,1.8400812049985689,1.0072280669280569,-2.9339211098655515,-10.372049651394972,2.2833205718828897,0.1011975885692472,-0.20000251177312203,0.05332252515307356,0.22176461151649618,9.142293537406365e-05,0.13717386455762476,70,255,255,255
93,1.8601072839992412,1.0529055448296742,-2.9318054769495423,-10.376049675520315,2.2838738950808626,0.10578164580045459,-0.20000120626711082,0.027666159898636966,0.2292028615603695,6.527530056008035e-05,0.13876736315182725,70,255,255,255
94,1.8801264539979456,1.0985844025867666,-2.9295955167766374,-10.380049681197944,2.28394288785462,0.11049800864523773,-0.200000283881412,0.0034496386878846153,0.23581814223915742,4.6119284940804306e-05,0.14023338185849354,70,255,255,255
95,1.900108056001045,1.1443034927411104,-2.9273091352997467,-10.384049662774597,2.2859545077171917,0.11431907384454514,-0.1999990788326636,0.10058099312857527,0.19105325996537037,6.025243741925035e-05,0.1422804294562222,70,255,255,255
96,1.9201456009977846,1.1900513709486131,-2.9249423920634294,-10.388049633740211,2.2873939103751395,0.11833716181586151,-0.19999854828065564,0.07197013289740228,0.20090439856581876,2.6527600397840967e-05,0.14416371324613259,70,255,255,255
97,1.9401304530001653,1.235817064847361,-2.9224917436586644,-10.392049589930542,2.288284694937391,0.12253242023825577,-0.1999978095165572,0.04453922811259314,0.2097629211197125,3.693820492114974e-05,0.14589633433285012,70,255,255,255
98,1.9601434399992286,1.281590321944038,-2.9199539764215947,-10.396049536458044,2.2886628548338583,0.12688836185348412,-0.19999732637506326,0.018907994823353036,0.2177970807614178,2.415707469693995e-05,0.14749034573263026,70,255,255,255
99,1.980107286999555,1.3273613355458151,-2.917326238778185,-10.400049462419082,2.2885506800888553,0.13138688217050296,-0.19999629805186392,-0.005608737250144991,0.22492601585094119,5.141615996764881e-05,0.14895683622042796,70,255,255,255
100,2.0000971519984887,1.3731693822538573,-2.9146289106498786,-10.404049369083546,2.2904023354021055,0.13486640641530317,-0.19999533322320964,0.0925827656625069,0.17397621224001159,4.8241432714091204e-05,0.15100413200019236,70,255,255,255
101,2.020071391998499,1.4190028647750557,-2.9118576985705835,-10.408049249515368,2.291674126059919,0.13856060396475448,-0.19999402159111757,0.06358953289067149,0.1847098774725655,6.55816046045421e-05,0.1528876441175756,70,255,255,255
102,2.040105201998813,1.464851031580588,-2.909008646768393,-10.412049116299016,2.292408340276618,0.14245259010952013,-0.19999333918241033,0.03671071083494715,0.19459930723828278,3.412043536243914e-05,0.1546204752655682,70,255,255,255
103,2.060088538997661,1.5107035912249018,-2.906078193666789,-10.416048965134367,2.2926279822156883,0.14652265508019016,-0.1999924417675153,0.010982096953506382,0.2035032485335011,4.4870744752040226e-05,0.15621467992172142,70,255,255,255
104,2.0800754989977577,1.5565508743142396,-2.9030631193070024,-10.42004879316738,2.2923641544668847,0.15075371798933299,-0.19999140165068735,-0.013191387440186997,0.21155314545714177,5.200584139697373e-05,0.15768134820538235,70,255,255,255
105,2.100102831998811,1.6024324584499077,-2.8999543046122063,-10.424048597912385,2.2940792067834077,0.1554407347398065,-0.19999023725025944,0.08575261582614413,0.23435083752367547,5.8220021395050114e-05,0.15972857609876007,70,255,255,255
106,2.1200735950005765,1.648336781476115,-2.896748926865315,-10.42804837172323,2.295216151310368,0.16026888734456904,-0.199988690542285,0.0568472263480273,0.24140763023812672,7.733539872234463e-05,0.16161202576066755,70,255,255,255
107,2.14011044200015,1.6942531500529858,-2.893444442801766,-10.432048128608908,2.295818428843546,0.16522420317743672,-0.19998784428391458,0.030113876658906857,0.24776579164338408,4.231291852016539e-05,0.16334479944962246,70,255,255,255
108,2.160100319000776,1.7401713428641594,-2.890038651888906,-10.436047866734553,2.295909640558684,0.17028954564300458,-0.19998690628220217,0.004560585756895108,0.2532671232783935,4.690008562036052e-05,0.16493895124346095,70,255,255,255
109,2.180138587998954,1.786081903807874,-2.8865296151954247,-10.440047599890843,2.2955280471857282,0.17545183467406622,-0.19998665781451186,-0.01907966864778876,0.258114451553082,1.2423384515791724e-05,0.16640557089379238,70,255,255,255
110,2.2000983899997664,1.8320248783058126,-2.8829122314999096,-10.44404733406625,2.2971487248969367,0.18086918477576416,-0.19998670877033942,0.08103388556041136,0.27086750508489654,-2.5477913779825556e-06,0.16845335712555148,70,255,255,255
111,2.220103683997877,1.8779888297263194,-2.87918470448573,-10.448047071319024,2.298197571025335,0.18637635070896308,-0.1999868626387545,0.05244230641991576,0.2753582966599454,-7.693420754351088e-06,0.17033732045876984,70,255,255,255
112,2.241010613997787,1.9239658593077669,-2.875344887037668,-10.45204710210252,2.2988514790723746,0.19199087240312104,-0.20000153917484137,0.03269540235197388,0.2807260847078986,-0.0007338268043426133,0.17207056672533075,70,255,255,255
113,2.260124746000656,1.9699427843355777,-2.871392202771563,-10.456047125277884,2.2988462513905352,0.19763421330525202,-0.2000011587681291,-0.0002613840919813981,0.28216704510654955,1.9020335613129102e-05,0.17366515329056678,70,255,255,255
114,2.2800852119980846,2.015909921494117,-2.867325694602313,-10.460047128613638,2.2983568579269695,0.2033254084624841,-0.20000016678774934,-0.024469673178279194,0.2845597578616037,4.959901898723973e-05,0.17513217293058392,70,255,255,255
115,2.300075716997526,2.061907391659639,-2.863143965970961,-10.464047098756906,2.2998735082761064,0.20908643156759965,-0.19999850716335016,0.0758325174568446,0.2880511552557783,8.298121995919949e-05,0.17717955353218506,70,255,255,255
116,2.320074350998766,2.107923774528264,-2.8588459010282072,-10.468047037309885,2.300819143431252,0.21490324713768807,-0.19999692764897345,0.047281757757267506,0.2908407785044207,7.897571883613841e-05,0.17906314368565812,70,255,255,255
117,2.340075945998251,2.1539483142292144,-2.854430634834388,-10.47204694677671,2.301226985047516,0.2207633096909535,-0.19999547334121265,0.02039208081321009,0.2930031276632722,7.271538803946265e-05,0.18079604662685334,70,255,255,255
118,2.360117470998375,2.1999710149690292,-2.8498975124780475,-10.4760468423354,2.3011350369907486,0.2266561178170221,-0.19999477793457351,-0.004597402838389719,0.29464040630343036,3.477033195625756e-05,0.18239031733275293,70,255,255,255
119,2.3801207510005042,2.2459823612602,-2.845246135062218,-10.480046726037154,2.3005673145585424,0.23256887079149263,-0.19999418508767164,-0.028386121610314063,0.2956376487235265,2.964234509386654e-05,0.18385704638218053,70,255,255,255
120,2.400119434998487,2.2920229731018593,-2.8404784048501748,-10.484046598260742,2.3020305920829562,0.23838651060216032,-0.19999361117939732,0.07316387622069209,0.2908819905333838,2.8695413715418283e-05,0.1859048718883676,70,255,255,255
121,2.420107959998859,2.338081392862032,-2.835593579065364,-10.488046456227297,2.302920988008632,0.24424128924053262,-0.1999928983277384,0.04451979628378755,0.2927389319186149,3.5642582946610046e-05,0.1877888713540597,70,255,255,255
122,2.440119054997922,2.384146894097988,-2.8305911295157116,-10.492046304569893,2.3032750617978035,0.25012247748261646,-0.19999241712983956,0.01770368945857337,0.29405941210419073,2.405989494222438e-05,0.18952215086249644,70,255,255,255
123,2.460114337998675,2.4302093320248055,-2.8254707600431965,-10.496046142599182,2.3031218963408686,0.2560184736257515,-0.19999190146441898,-0.007658272846738257,0.29479980715675036,2.5783271029033994e-05,0.1911167680102582,70,255,255,255
124,2.480149290000554,2.4762593023867554,-2.820232350463129,-10.500045982377754,2.3024985180975053,0.2619204790033682,-0.1999919889286107,-0.031168912168171747,0.29510026888083396,-4.373209585850635e-06,0.19258381578619904,70,255,255,255
125,2.5001208119974763,2.5223377692530358,-2.8148808446555162,-10.504045829149808,2.3039233433140125,0.26757529038063455,-0.19999233860267848,0.07124126082535565,0.2827405688633191,-1.7483703389387095e-05,0.1946319509757621,70,255,255,255
126,2.520115290000831,2.568433279616011,-2.8094155938022523,-10.50804568097386,2.3047755181487637,0.2732625426632004,-0.19999259120259152,0.04260874173755047,0.2843626141282921,-1.2629995652296833e-05,0.19651623535016013,70,255,255,255
127,2.540117222997651,2.6145350642348886,-2.8038361640418668,-10.51204553840243,2.305089230943883,0.27897148801928157,-0.1999928714285349,0.015685639755955716,0.2854472678040585,-1.4011297168409209e-05,0.1982497769746063,70,255,255,255
128,2.5600769779994152,2.66063285501493,-2.7981423639762175,-10.516045388448964,2.3048895390020667,0.2846900032824645,-0.19999250232666407,-0.009984597090797909,0.28592576315914786,1.845509354042596e-05,0.1998446352690968,70,255,255,255
129,2.5801202719994762,2.7067172736620173,-2.7923341298464135,-10.520045245650387,2.304220932354366,0.2904117064901969,-0.1999928600711839,-0.03343033238502757,0.2860851603866188,-1.788722599013748e-05,0.20131190490002807,70,255,255,255
130,2.600120193998009,2.752829396225877,-2.7864192537722228,-10.524045101941883,2.3056061281929905,0.2957438037095254,-0.19999281457484203,0.0692597919312119,0.26660486096642644,2.274817092584591e-06,0.2033597493254864,70,255,255,255
131,2.620111538999481,2.7989577533794057,-2.780396964015227,-10.528044954838384,2.306417857676424,0.3011144878497929,-0.19999264482498455,0.0405864741716746,0.26853420701337316,8.487492873354707e-06,0.20524376619690807,70,255,255,255
132,2.6402011059981305,2.8450918522901727,-2.774266625276323,-10.532044833440391,2.306704945538353,0.3065169369451839,-0.19999393010037678,0.014354393096455809,0.27012245476955055,-6.42637696113002e-05,0.20697706171861602,70,255,255,255
133,2.6601182159974996,2.891221268646485,-2.7680279567477997,-10.536044709875013,2.3064708178156037,0.31193342642616007,-0.19999382173107486,-0.011706386137446234,0.27082447404880805,5.418465095635705e-06,0.20857169359858732,70,255,255,255
134,2.680108537999331,2.937336445365845,-2.761680806881079,-10.540044581373037,2.3057588359680077,0.31735749333602653,-0.19999357490119057,-0.03559909237979664,0.2712033454933229,1.2341494213780058e-05,0.2100387549281609,70,255,255,255
135,2.7001217439974425,2.9834787515291166,-2.755235588585726,-10.544044442473382,2.3071153081635933,0.3222609147676624,-0.1999930550172597,0.0678236097792917,0.24517107158179274,2.5994196543199788e-05,0.21208637158808438,70,255,255,255
136,2.7207005079981172,3.0296385837246063,-2.7486907171693824,-10.548044479226629,2.3079916097744904,0.3272435708171611,-0.20000183766234791,0.0438150805448454,0.24913280247493563,-0.0004391322544115839,0.21397017891521394,70,255,255,255
137,2.7403546259993163,3.075803927836472,-2.7420456614095823,-10.552044570352558,2.3082672055932862,0.3322527879900004,-0.20000455629649022,0.013779790939788317,0.25046085864196455,-0.0001359317071149002,0.21570328165617317,70,255,255,255
138,2.7601506920000247,3.1219639360103546,-2.7352999596015297,-10.556044647184128,2.3080004086941184,0.3372850904026228,-0.200003841578521,-0.013339844958395908,0.25161512063111924,3.573589846178615e-05,0.21729773617785567,70,255,255,255
139,2.7801340939986403,3.16810901927585,-2.7284531769081215,-10.56004470514471,2.3072541632747683,0.3423391346704142,-0.20000289802908217,-0.03731227096749734,0.25270221338957066,4.717747194163402e-05,0.21876463433780358,70,255,255,255
140,2.8000944509985857,3.214280887954866,-2.7215181900153804,-10.564044744994145,2.308593433950808,0.34674934463705226,-0.2000019924717288,0.06696353380198161,0.22051049833190173,4.5277867667004035e-05,0.22081239246334075,70,255,255,255
141,2.8200803059989994,3.2604680146687066,-2.714493478691125,-10.568044763228944,2.30935633569203,0.35123556621277185,-0.20000091173986853,0.03814508706110864,0.224311078785979,5.403659301436714e-05,0.22269632993883495,70,255,255,255
142,2.8400862749986118,3.3066596036333387,-2.707377739452907,-10.572044763026886,2.3095794482316094,0.35578696191089004,-0.1999999898971298,0.011155626978979427,0.22756978490590996,4.6092136936098926e-05,0.2244295524162896,70,255,255,255
143,2.8600474890008627,3.3528453564561786,-2.7001699327749122,-10.57604473308299,2.309287641142004,0.360390333899748,-0.19999850280515602,-0.014590354480279899,0.23016859944289836,7.435459868926353e-05,0.22602411709554787,70,255,255,255
144,2.8800680690001172,3.3990157919572153,-2.692869175615467,-10.580044681815274,2.308521775051828,0.3650378579722655,-0.19999743661420039,-0.03829330450878654,0.23237620362587652,5.3309547781765776e-05,0.22749111660046548,70,255,255,255
145,2.9001142300003266,3.4452129077516274,-2.685490683083656,-10.584044615288555,2.309855789720594,0.3689246265905569,-0.19999667366409857,0.06670073343830474,0.19433843091456948,3.814750509117948e-05,0.22953880627608114,70,255,255,255
146,2.920109598999261,3.4914251728173378,-2.6780323681245704,-10.588044533042897,2.310613253285511,0.37291574795428767,-0.19999588771712326,0.03787317824583214,0.1995560681865386,3.9297348765954254e-05,0.23142268077764755,70,255,255,255
147,2.9401170359997195,3.5376417623723646,-2.6704923854227323,-10.59204443853287,2.310829477751349,0.3769991350918945,-0.19999527449862647,0.010811223291908867,0.20416935688034066,3.066092483897109e-05,0.23315584531908864,70,255,255,255
148,2.9601194739989296,3.583852478205659,-2.662869135689321,-10.596044333425711,2.3105357916647087,0.38116248667058034,-0.19999474464202907,-0.014684304332032827,0.20816757893429227,2.6492829870050638e-05,0.23475035669721447,70,255,255,255
149,2.9801162789990485,3.6300477253711914,-2.655161254047816,-10.600044217503019,2.309762358276622,0.38539408207522546,-0.19999420386540206,-0.038671669404337194,0.21157977023225505,2.7038831349662784e-05,0.2362173071650902,70,255,255,255
150,3.000107310999738,3.6762698930504265,-2.64738612652521,-10.604044108824484,2.3111083839617574,0.3887563761303246,-0.19999456607320373,0.06730128425678394,0.1681147027549561,-1.81103900837587e-05,0.23826542339836326,70,255,255,255
151,3.0201073399985034,3.7225074106370517,-2.6395410266298267,-10.60804400713862,2.311875879331249,0.3922549947691523,-0.19999491570680036,0.03837476847456145,0.17493093194138742,-1.748167983148252e-05,0.24014969033297448,70,255,255,255
152,3.040126395997504,3.7687494380876814,-2.6316234851480176,-10.612043918286485,2.3121013725314805,0.395877074090455,-0.19999555739323427,0.011274660011590942,0.18110396606513346,-3.2084321695519114e-05,0.24188321591281678,70,255,255,255
153,3.0601074669975787,3.8149856569937546,-2.6236313333937873,-10.616043835582937,2.31181094530366,0.3996075877115049,-0.19999586482265413,-0.01452136139102489,0.18652568105249556,-1.537147099350822e-05,0.2434780594462717,70,255,255,255
154,3.080183570000372,3.861206681447304,-2.6155625609412634,-10.62004378314435,2.3110512226774698,0.4034386226261925,-0.19999737807063733,-0.03798613130950956,0.19155174573438138,-7.566239916029227e-05,0.24494531549705026,70,255,255,255
155,3.1001291270004003,3.9074545774581013,-2.6074049707206712,-10.624043728020167,2.3123948005398574,0.407879511029608,-0.19999724379082653,0.06717889311938796,0.22204442017077608,6.713990540307968e-06,0.24699317406949683,70,255,255,255
156,3.1201174550005817,3.9537176987486946,-2.599157114237399,-10.628043666724682,2.313156064529667,0.4123928241636203,-0.19999693522574186,0.038063199490486976,0.22566565670061256,1.542825423370142e-05,0.24887720395614768,70,255,255,255
157,3.1401225169975078,3.999985127006622,-2.590817757731332,-10.632043601346085,2.313371412896349,0.4169678253033514,-0.19999673107015187,0.010767418334093115,0.22875005698655682,1.020777950005991e-05,0.25061051145186647,70,255,255,255
158,3.1601658340005088,4.046246714543039,-2.582385849916576,-10.63604354609541,2.313079376820876,0.42159539073777497,-0.1999972374662331,-0.014601803773653721,0.23137827172117886,-2.5319804062340356e-05,0.25220515434792773,70,255,255,255
159,3.182033611999941,4.092498770150778,-2.5738587406840083,-10.640044098142342,2.312602780386927,0.4263554616283837,-0.2000276023465945,-0.02382982169744441,0.23800354453043915,-0.0015182440180696588,0.2536722258123041,70,255,255,255
160,3.200115110998013,4.138777302756487,-2.5652300277322335,-10.64404459773535,2.3139266302854296,0.4314356475887367,-0.2000249796504103,0.06619249492512624,0.25400929801764804,0.00013113480921017606,0.2557197797490546,70,255,255,255
161,3.2200867499996093,4.185070587332923,-2.556499161243724,-10.648045038146801,2.3146642288218207,0.4365433244254873,-0.200022020572582,0.03687992681955521,0.2553838418375298,0.0001479538914150036,0.25760352937086506,70,255,255,255
162,3.240082578999136,4.23136765615932,-2.5476657630638644,-10.65204542088821,2.314853441319838,0.44166990899296465,-0.2000191370704998,0.009460624900848202,0.2563292283738674,0.00014417510411091072,0.25933657902293067,70,255,255,255
163,3.2600766039977316,4.277658187750553,-2.5387296436254134,-10.656045746895394,2.314526579561637,0.44680597192254895,-0.20001630035920728,-0.016343087910025922,0.25680314647921454,0.00014183556462499247,0.26093098470283105,70,255,255,255
164,3.280073435998929,4.323932499352589,-2.5296907862146623,-10.660046018037034,2.313715580101822,0.4519428705375492,-0.20001355708203672,-0.04054997299077234,0.25684493075001313,0.0001371638585275503,0.2623978379283394,70,255,255,255
165,3.300088240997866,4.37023390236996,-2.5205441018451245,-10.664046276961956,2.315070150868544,0.4573342184768886,-0.2000129462461014,0.06772853833609904,0.26956739696696763,3.054179676631463e-05,0.2644460517490417,70,255,255,255
166,3.3200770679977722,4.416550653319317,-2.5112895850752617,-10.668046520413522,2.315837547467858,0.46272583849314236,-0.20001217257832696,0.03836982996570004,0.26958100081268765,3.868338872153876e-05,0.26633040846408784,70,255,255,255
167,3.34024108399899,4.462872249374426,-2.501927218308674,-10.672046801415732,2.316079802755459,0.4681183383293785,-0.20001405011051313,0.012112764380070473,0.26962499181180766,-9.387660930884612e-05,0.26806401664193025,70,255,255,255
168,3.3600829809984134,4.509187779345652,-2.492457497747429,-10.676047066672984,2.3157764985613034,0.4734860280622449,-0.20001326286258211,-0.015165209707781013,0.2683844866433207,3.936239655019658e-05,0.2696589361655453,70,255,255,255
169,3.38016146299924,4.555487753492477,-2.482880811735402,-10.680047341819803,2.3149987073412315,0.47883430060134896,-0.20001375734096014,-0.03888956100360419,0.26741362695520454,-2.4723918901153885e-05,0.27112626212727114,70,255,255,255
170,3.400094730001001,4.601814847030867,-2.473195538836056,-10.684047591485621,2.3163546769195054,0.4842636449673169,-0.20001248329089966,0.06779847891370272,0.2714672182983975,6.370250302337177e-05,0.2731740957826056,70,255,255,255
171,3.420100287999958,4.648157327233264,-2.4634019233163,-10.688047818578392,2.3171240101198447,0.4896807759877986,-0.20001135463856065,0.03846666001697363,0.2708565510240858,5.643261694959767e-05,0.2750581027455133,70,255,255,255
172,3.4401154199986195,4.694504171353899,-2.453500357718071,-10.69204802893139,2.317342206031758,0.4950782799114395,-0.20001051764991898,0.010909795595660743,0.26987519618204625,4.18494320836571e-05,0.27679138915138835,70,255,255,255
173,3.4601247659993533,4.740844992514288,-2.443491390046468,-10.696048226203157,2.3170410580194227,0.5004483835801671,-0.20000986358836756,-0.015057400616750094,0.2685051834363772,3.270307757161084e-05,0.2783860126447934,70,255,255,255
174,3.4801320570004464,4.787170030109391,-2.433375709505577,-10.700048413196052,2.3162518797551717,0.5057840270445645,-0.20000934964478548,-0.03945891321255335,0.2667821732198731,2.5697179104527956e-05,0.2798530662587261,70,255,255,255
175,3.500117763000162,4.833522340081095,-2.423154593658626,-10.7040485716529,2.3176154985852158,0.511055792347528,-0.20000792284239294,0.0681809415022081,0.26358826514817457,7.13401196271446e-05,0.28190074263843357,70,255,255,255
176,3.5201326629976393,4.8798901700708415,-2.4128283045175487,-10.70804870780033,2.3183914994873174,0.5163144570538636,-0.20000680737155574,0.038800045105077174,0.2629332353167836,5.57735418594274e-05,0.28378460490776447,70,255,255,255
177,3.5401115469976503,4.9262623327783635,-2.402397296990915,-10.712048816001953,2.318608135376115,0.5215503763316724,-0.20000541008117462,0.010831794439875253,0.26179596389044124,6.986451905599544e-05,0.2855177581955489,70,255,255,255
178,3.5601199439988704,4.972628399650667,-2.391862133185862,-10.716048900448435,2.3183033436151783,0.5267581902526417,-0.20000422232410597,-0.015239588046844332,0.2603906960484619,5.938785343223563e-05,0.2871122592203106,70,255,255,255
179,3.580123931998969,5.018978563492469,-2.3812235130714905,-10.72004896370613,2.3175081920901293,0.5319310057185865,-0.20000316288474448,-0.039757576252458016,0.25864077329723956,5.297196807430016e-05,0.28857920016309135,70,255,255,255
180,3.6001358270004857,5.065356219874602,-2.3704854128743884,-10.724049001290753,2.3188828191066237,0.5369050098551033,-0.20000187923117185,0.06873135082472404,0.24870020682583804,6.418267863220195e-05,0.29062683723913085,70,255,255,255
181,3.6201133690010465,5.111749443128835,-2.3596479671034323,-10.728049007495994,2.3196611627116477,0.5418722885478093,-0.20000031026205276,0.038917180251197614,0.2483639346353067,7.844845595472716e-05,0.29251066334908715,70,255,255,255
182,3.6401204169997072,5.158147092639231,-2.348711427157308,-10.732048986450046,2.319882475519817,0.5468269973062175,-0.19999894770264004,0.01106564040847946,0.24773543792041153,6.812797063585063e-05,0.294243783370247,70,255,255,255
183,3.660162579999451,5.204538801512803,-2.3376761474469965,-10.736048953313816,2.3195854436786236,0.5517639855155718,-0.19999834318846385,-0.014851592059665464,0.24684941046771558,3.0225708809394902e-05,0.295838253789714,70,255,255,255
184,3.680157637998491,5.25091468363916,-2.3265426733700636,-10.740048907284296,2.3187941063178625,0.5566737038466524,-0.19999769852402127,-0.03956686803805365,0.24548591655402796,3.223322212944635e-05,0.29730516657562367,70,255,255,255
185,3.700113234001037,5.297318485962894,-2.3153175121963043,-10.744048856780893,2.3201901161866827,0.5612580586879713,-0.19999747482981897,0.06980049344100347,0.22921774206594703,1.118471011563038e-05,0.2993531755078593,70,255,255,255
186,3.720212870000978,5.343738606023643,-2.3040003260129867,-10.748048834036364,2.3210060030374655,0.565859309165894,-0.19999886277354,0.04079434253913572,0.23006252389613635,-6.9397186052228e-05,0.301237343725516,70,255,255,255
187,3.740333563000604,5.390164178782689,-2.2925909194891743,-10.752048876043329,2.3212786379522816,0.5704703261906101,-0.20000210034819413,0.013631745740798618,0.23055085123580688,-0.00016187873270528952,0.30297077848576026,70,255,255,255
188,3.7601250810002966,5.436583929019317,-2.2810896463329096,-10.756048912135245,2.3209875118314356,0.5750636578132419,-0.20000180459580694,-0.014556306042291745,0.22966658113158878,1.478761935988504e-05,0.3045655384651849,70,255,255,255
189,3.7800871379986347,5.48298781306689,-2.269496784086078,-10.760048930467509,2.3201942023786444,0.5796431123415878,-0.20000091661318312,-0.039665472639563326,0.22897272641729727,4.439913119128058e-05,0.3060327176462556,70,255,255,255
190,3.80012379999971,5.52941945237213,-2.2578213585375115,-10.764048914921169,2.32158196526198,0.5837712774283293,-0.19999922268297707,0.06938814416677985,0.20640825433707355,8.469651030282299e-05,0.30808009774078626,70,255,255,255
191,3.820075347997772,5.575866735950282,-2.24606274217583,-10.768048852049175,2.322364178907586,0.5879308180840902,-0.1999968564002595,0.03911068228030867,0.20797703278804036,0.00011831413587895523,0.30996368742775443,70,255,255,255
192,3.840086080999754,5.622318443836852,-2.234220406273978,-10.77204874822622,2.3225853943285206,0.5921167950925941,-0.1999948088522963,0.011060771046738083,0.20929885042519225,0.00010237739815938118,0.3116965899397652,70,255,255,255
193,3.8600889059998735,5.668763996880718,-2.222293997396279,-10.776048606979481,2.322277652193293,0.5963204438849548,-0.19999293766304913,-0.015387106761389102,0.2101824396180364,9.355946236005996e-05,0.31329086025081504,70,255,255,255
194,3.880110895999678,5.7151935218555705,-2.2102832945244457,-10.780048437817179,2.321476248742638,0.6005351435916642,-0.19999154188489285,-0.04007017253273304,0.21073498533546753,6.978890781375591e-05,0.3147575889369809,70,255,255,255
195,3.9001024429999234,5.7616511635708125,-2.198199553898797,-10.784048253066027,2.322882085762116,0.6041870312824529,-0.1999907624424067,0.07029185097388657,0.18259438453943488,3.8972124306174694e-05,0.3168052474230399,70,255,255,255
196,3.920099396000296,5.8081248930448774,-2.1860415345371367,-10.78804805298192,2.3236864737032654,0.6079009680829993,-0.19998999579456792,0.04021939705746691,0.18569684002732223,3.8332391939899235e-05,0.31868909323021416,70,255,255,255
197,3.940097129998321,5.854603379793872,-2.173808187787454,-10.792047838079846,2.3239243374497045,0.611667337484112,-0.1999892548962965,0.01189318732195943,0.18831847005563052,3.704491357167661e-05,0.3204222313728145,70,255,255,255
198,3.9601019590008946,5.901075988255309,-2.161498639585747,-10.796047611138007,2.3236304230718496,0.6154774100853613,-0.1999886529081284,-0.014695718892748566,0.1905036300624685,3.009940840481562e-05,0.3220167184640068,70,255,255,255
199,3.9800999830004002,5.947532708629702,-2.1491121987271713,-10.80004737260958,2.3228360187196717,0.6193220429287738,-0.19998807357858953,-0.039720217608887776,0.1922316421706276,2.8966476943170782e-05,0.32348364658790374,70,255,255,255
200,4.000093684000603,5.994017778991558,-2.1366623437310857,-10.804047126839562,2.3242535180927875,0.6224927498042911,-0.19998771149910033,0.07087496865578835,0.1585353437758652,1.8103974460309535e-05,0.32553140628884214,70,255,255,255
201,4.020186878999084,6.040519420453045,-2.124147078834223,-10.808046904478081,2.325082073074325,0.6257632448431314,-0.19998888192595762,0.04142774907686375,0.16352475194201266,-5.8521342864215065e-05,0.32741534521370547,70,255,255,255
202,4.040120410998497,6.087026023424244,-2.1115648370522537,-10.812046683206644,2.3253301485599573,0.6291120890984637,-0.1999889364281125,0.012403774281611657,0.16744221276661864,-2.7251077433232407e-06,0.32914856902457973,70,255,255,255
203,4.060120067999378,6.133526878552222,-2.098914167939335,-10.81604646320412,2.3250427563988967,0.6325334556459246,-0.1999889998738672,-0.014369608053036664,0.1710683273730419,-3.17228773477618e-06,0.3307431349305841,70,255,255,255
204,4.081004920000851,6.180014760865772,-2.0861926844624885,-10.820046527899022,2.3243941156774968,0.6360741738423243,-0.20000323474510204,-0.03243203606998657,0.1770359098199914,-0.0007117435617419732,0.3322101355641081,70,255,255,255
205,4.100121322000632,6.226531036433397,-2.0733853270955054,-10.82404657596359,2.325813778381252,0.6403678683491536,-0.2000024032284242,0.07098313518775345,0.21468472534146166,4.157583389280406e-05,0.3342580704495838,70,255,255,255
206,4.120107087997894,6.273063530070136,-2.0604915174855507,-10.82804660376386,2.326624681836934,0.6446904804977248,-0.20000139001353776,0.04054517278408465,0.21613060742855938,5.066074432175105e-05,0.3361421705442214,70,255,255,255
207,4.140091983997991,6.319600768369223,-2.047510851446039,-10.832046607637931,2.326861914954351,0.6490333019755978,-0.20000019370352431,0.011861655870855525,0.21714107389365134,5.9815500671411836e-05,0.33787554263128805,70,255,255,255
208,4.160076944997854,6.366131958944838,-2.0344430879265825,-10.836046584202695,2.3265595287807743,0.6533881759728353,-0.19999882823818388,-0.015119308678834376,0.21774369986187314,6.827326702174563e-05,0.33947024495138933,70,255,255,255
209,4.1800892040009785,6.41264705398428,-2.0212881038791206,-10.840046539057088,2.3257547519720627,0.6577492023731025,-0.1999977427196328,-0.04023884043557313,0.21805132001336092,5.427592755399835e-05,0.3409373710858825,70,255,255,255
210,4.200080106998939,6.459190640044813,-2.0080334593571556,-10.844046477917725,2.32717930302668,0.6627322260982474,-0.19999694303188287,0.0712275527308619,0.2491511862572463,3.998438749744371e-05,0.34298512932700315,70,255,255,255
211,4.220084180000413,6.505750550961081,-1.994679454830852,-10.848046403145418,2.327995545813413,0.6677002263151809,-0.19999626138457047,0.040812139336665165,0.24840001084667407,3.408236562046918e-05,0.3448690669088341,70,255,255,255
212,4.240079207000235,6.552315295470674,-1.9812265438765015,-10.852046314086415,2.3282372254796124,0.6726455477175173,-0.19999554704987865,0.012083983309973956,0.247266070116822,3.5716734590768295e-05,0.3466022894841186,70,255,255,255
213,4.260079904997838,6.598874082200368,-1.9676753034839665,-10.856046211963774,2.3279393364846888,0.6775620196267503,-0.1999948938679502,-0.014894449746175376,0.24582359546165167,3.2659096422416045e-05,0.3481968542533803,70,255,255,255
214,4.280075301998295,6.645416759828591,-1.954026440475654,-10.860046096251748,2.327133881411158,0.682443150415624,-0.199994214398756,-0.04027275367652283,0.244056539443683,3.3973459709762954e-05,0.3496638538411011,70,255,255,255
215,4.30010564999975,6.691988135153796,-1.9402709980582675,-10.864045975587642,2.3285687662602625,0.6877721208693179,-0.19999396679466797,0.07174424245521127,0.26644852268469943,1.2380204402445694e-05,0.35171175822649636,70,255,255,255
216,4.320128916999238,6.738576046568042,-1.926409826450205,-10.86804585790708,2.329395570712322,0.6930585804031275,-0.19999411597194555,0.04134022260297909,0.26432297669048,-7.4588638799277795e-06,0.35359583026106,70,255,255,255
217,4.340128833999188,6.785168960982125,-1.912443926154509,-10.872045743192782,2.3296457207041104,0.6982950147848029,-0.1999942642850305,0.01250749958941677,0.2618217190837715,-7.415654247777681e-06,0.35532917653285856,70,255,255,255
218,4.360129947999667,6.831756033117792,-1.898374403562793,-10.876045631806791,2.3293536067833416,0.7034761295858002,-0.19999443070048198,-0.014605696038446414,0.2590557400498644,-8.320772573316981e-06,0.35692385510291325,70,255,255,255
219,4.380123213999468,6.87832705264753,-1.8842024752781819,-10.880045521572749,2.3285509764869334,0.7085964142305582,-0.1999944882978825,-0.04013151482039801,0.2560142322379023,-2.8798700253129805e-06,0.35839095938736354,70,255,255,255
220,4.400080225997954,6.924926873645722,-1.8699224401867194,-10.884045409777752,2.329991049909571,0.7140017545731263,-0.199994410250169,0.0720036711318719,0.2702670171284034,3.902385673881792e-06,0.36043888812336156,70,255,255,255
221,4.420103393000318,6.97154328244507,-1.8555354388391352,-10.88804530410777,2.330820439967373,0.7193500673792077,-0.19999471650095596,0.041469502890105314,0.26741564030406806,-1.5312539347916987e-05,0.36232298256047973,70,255,255,255
222,4.440132820000144,7.018164791689824,-1.841042705684644,-10.892045213781016,2.3310754622377314,0.7246366577245617,-0.19999548366229136,0.012751113517922796,0.2643295172676955,-3.835806677074394e-05,0.3640563494426285,70,255,255,255
223,4.460119841998676,7.0647804594088655,-1.826445629985382,-10.896045133868457,2.330783385952053,0.7298537849630937,-0.19999600437206355,-0.01460381428392088,0.2608563619266009,-2.6035488609160717e-05,0.36565104697420536,70,255,255,255
224,4.480118316998414,7.111380046145385,-1.811745668469263,-10.900045063385102,2.32997933682595,0.7349980758059437,-0.19999647583224991,-0.040202456305141965,0.2572145421424997,-2.3573009318461624e-05,0.36711816870325603,70,255,255,255
225,4.500117758998385,7.158008371699062,-1.7969401565296643,-10.904044981678291,2.3314162776838696,0.7402755969799365,-0.1999959146595004,0.07184704289596766,0.2638760586996387,2.8058637475986137e-05,0.36916587763147796,70,255,255,255
226,4.520133435999014,7.204653156586385,-1.7820302923023497,-10.908044894568805,2.33223924436612,0.7454932113657312,-0.19999564452567076,0.04114833411252938,0.2608807192897378,1.3506691481812716e-05,0.37104976984544213,70,255,255,255
227,4.540121999998519,7.2513027449963126,-1.7670174080428551,-10.912044798860657,2.332479420496371,0.7506442129747254,-0.19999521459262187,0.012008806512522785,0.25755008044970973,2.1496652444108477e-05,0.37278295068228917,70,255,255,255
228,4.5601676759979455,7.2979463555392305,-1.7519028386589208,-10.916044709839221,2.3321805271459204,0.7557284691967139,-0.19999554892819854,-0.014944667522524657,0.25421281109942506,-1.6716778833025803e-05,0.3743774770521885,70,255,255,255
229,4.580156256000919,7.3445736805663016,-1.7366880838814909,-10.920044623591329,2.3313662513535394,0.7607377388714957,-0.19999568760540315,-0.040713789619058804,0.250463483739091,-6.933860229929589e-06,0.37584444131249584,70,255,255,255
230,4.600118063000991,7.3912298741402465,-1.721373158452952,-10.924044534264244,2.332809678697254,0.7657462714269508,-0.19999553364574296,0.07217136718573647,0.2504266277727599,7.697983008897458e-06,0.37789232182557614,70,255,255,255
231,4.62010679100058,7.4379025181681335,-1.7059591518232788,-10.9280444385786,2.3336322013943644,0.770700331483657,-0.1999952157178226,0.041126134855526075,0.24770300283530855,1.5896396017650583e-05,0.37977637189761004,70,255,255,255
232,4.640115547997993,7.484579977414674,-1.6904472171214204,-10.932044339871249,2.3338729623270034,0.7755967350929235,-0.19999506463238748,0.012038046631950738,0.24482018046332088,7.554271757193032e-06,0.38150969796388123,70,255,255,255
233,4.660134079000272,7.531251338331161,-1.6748385805855517,-10.936044244411343,2.3335680458243253,0.7804318267934381,-0.19999522700470318,-0.015245825133895607,0.24175458502573244,-8.118615785285277e-06,0.3831043579448507,70,255,255,255
234,4.680126863000623,7.577906269548731,-1.6591345875037042,-10.940044149847653,2.332746560878545,0.7851996540923755,-0.199995271815478,-0.041074247289,0.2383913649468642,-2.2405387402890664e-06,0.38457144512734265,70,255,255,255
235,4.700118229000509,7.624590052201646,-1.6433378334010238,-10.944044049193867,2.334189132645734,0.7898377051340182,-0.19999496731072167,0.07212858835943647,0.23190255208213495,1.522523781616325e-05,0.38661920392621424,70,255,255,255
236,4.720126803000312,7.671290288588339,-1.6274490646720075,-10.948043945720118,2.3350118193346265,0.7944384364508128,-0.19999482631255044,0.04113433444463599,0.2300365658397333,7.049908561401752e-06,0.3885031420211761,70,255,255,255
237,4.740125249998528,7.717995266136958,-1.6114691453824912,-10.952043839264201,2.3352488774309648,0.7989959644758122,-0.1999946772041409,0.011852904816910481,0.227876401249972,7.455420477420205e-06,0.39023636506854104,70,255,255,255
238,4.7603837809983816,7.7646947997129105,-1.5953986424136064,-10.956043812905294,2.33497667879761,0.8035251484442406,-0.19999868205470686,-0.013609931667748487,0.22645919842141937,-0.00020024252829761724,0.39183093027211674,70,255,255,255
239,4.7801134459987225,7.811377631628835,-1.5792390290131042,-10.960043775372554,2.3341415957962344,0.8079806700251079,-0.19999812336295683,-0.041754150068766815,0.22277607904336127,2.7934587501082797e-05,0.3932979302594064,70,255,255,255
240,4.800109256000724,7.858089352234148,-1.5629952726553462,-10.964043733583662,2.3355860302656706,0.8121878178879034,-0.19999791055537702,0.07222172347181477,0.21035739313977697,1.064037898998449e-05,0.3953458035406433,70,255,255,255
241,4.820113199999469,7.904817502075314,-1.5466676845990577,-10.96804368912293,2.336407492058315,0.8163794028144228,-0.19999777696334334,0.041073089632212234,0.20957924632597114,6.679601684878023e-06,0.39722984695938124,70,255,255,255
242,4.840137045001029,7.951550406662442,-1.5302566609889539,-10.972043649852203,2.336645229356357,0.8205511805051944,-0.19999803646371525,0.011886864902098448,0.2085888845385825,-1.2975018595623444e-05,0.39896316690462014,70,255,255,255
243,4.860150340999098,7.998277050610627,-1.5137627239018923,-10.976043619777638,2.336332197409237,0.8246968543530796,-0.19999849627169203,-0.015651597355983426,0.2072836923942607,-2.29903988383795e-05,0.40055782125423994,70,255,255,255
244,4.880097889999888,8.044986879084691,-1.4971865977432472,-10.98004358161126,2.3354914237032163,0.8288063079322504,-0.19999809168116808,-0.04203868530104504,0.20547267895853827,2.0229526196624548e-05,0.4020249032558902,70,255,255,255
245,4.900170618999255,8.091725825954216,-1.4805355004278198,-10.984043558980927,2.336947343476222,0.8325548657713713,-0.1999988684833607,0.07279598865029557,0.1874278919560456,-3.884010963084439e-05,0.4040731746039547,70,255,255,255
246,4.920086842997989,8.138481093717278,-1.4638093416889102,-10.988043524182364,2.3377633881530833,0.8363079369454782,-0.1999982600718282,0.04080223384305626,0.18765355870534872,3.0420576626444262e-05,0.40595758424417405,70,255,255,255
247,4.940115870998852,8.185240987581446,-1.4470079798880628,-10.992043487290303,2.337994693208426,0.8400680900423653,-0.19999815539688645,0.011565252767126832,0.1880076548443499,5.233747087690643e-06,0.4076912411131759,70,255,255,255
248,4.960080123000807,8.23199429975688,-1.4301315037841698,-10.99604343705002,2.337665608771627,0.8438238051946514,-0.19999748798583747,-0.016454221839932615,0.1877857576143066,3.3370552448452884e-05,0.4092862054326576,70,255,255,255
249,4.980093787999067,8.278730663573414,-1.413180039509796,-11.000043378715592,2.3368181908267234,0.8475732137186855,-0.19999708327864626,-0.04237089724519105,0.1874704262017064,2.0235359559861443e-05,0.41075357260658074,70,255,255,255
250,5.00007530899893,8.325495805752,-1.3961631143417923,-11.004043308904405,2.338257108929312,0.8508462584001789,-0.19999650944067604,0.071945905129426,0.163652234074668,2.869189851131826e-05,0.4128010592971303,70,255,255,255
251,5.020072002000234,8.372277164781034,-1.379079887216841,-11.008043227358524,2.339067951451667,0.8541613562475667,-0.19999592270589983,0.04054212611774366,0.16575489236939023,2.9336738810115115e-05,0.4146847470524359,70,255,255,255
252,5.040075435998006,8.419062928463834,-1.361929662832593,-11.01204313601138,2.3392881841400013,0.8575112192124024,-0.19999543264284503,0.011011634416720817,0.1674931482417794,2.4503152740384948e-05,0.41641773978731705,70,255,255,255
253,5.060076317000494,8.46584197811849,-1.3447118988853866,-11.016043035879127,2.3389524827328096,0.8608881973603245,-0.19999499338738477,-0.01678507035957777,0.16884890739611014,2.19627730122518e-05,0.4180120931034077,70,255,255,255
254,5.080085534998943,8.512603899604839,-1.327426180333433,-11.020042930598843,2.338096074317429,0.8642859275976771,-0.1999947359858076,-0.042820420769032363,0.16988651186762904,1.2870078857890599e-05,0.4194788981542111,70,255,255,255
255,5.100096628000756,8.559394613980396,-1.310052283284531,-11.024042816630256,2.3395357187778583,0.868694852445104,-0.19999430157070378,0.0719822230214806,0.22044624237134802,2.1720755192355945e-05,0.4215264742422415,70,255,255,255
256,5.120104218000051,8.606201552816806,-1.2925906432228125,-11.028042697105816,2.340346941820505,0.8730820030859278,-0.19999402377798176,0.04056115213232481,0.21935753204118658,1.3889636101549474e-05,0.42341024424322943,70,255,255,255
257,5.140102127999853,8.65301284485628,-1.275041825690461,-11.03204257188131,2.3405646019736484,0.8774408766175775,-0.1999937387747752,0.010883007657160437,0.2179436765824868,1.4250160327550221e-05,0.42514331264413835,70,255,255,255
258,5.1601232719986,8.699817398500164,-1.2574064638619484,-11.036042448265185,2.3402276821942447,0.8817680914256315,-0.19999381919370135,-0.01684598897018752,0.21636074040269915,-4.020946308247453e-06,0.4267377355729745,70,255,255,255
259,5.180112220998126,8.746604695403164,-1.2396853439361193,-11.040042322822401,2.3393648451500186,0.8860559962914586,-0.19999372786077446,-0.04314185221130806,0.21439524329135218,4.566646345099956e-06,0.4282046046675038,70,255,255,255
260,5.200099080000655,8.793420777675669,-1.2218620893098757,-11.044042190006309,2.340804113625208,0.8911627313121808,-0.19999335919533018,0.07196342375946818,0.25533675103611364,1.8433272214068985e-05,0.4302522370159179,70,255,255,255
261,5.220135396997648,8.840253128678262,-1.2039380037829106,-11.04804206209325,2.3416175501296044,0.8962042763482571,-0.19999360434705182,0.04067182521982682,0.2520772518038126,-1.225758608169869e-05,0.4321360587764589,70,255,255,255
262,5.240100830000301,8.88708972991114,-1.185914592211087,-11.052041927932265,2.3418300616439542,0.9011705785911865,-0.19999329195075727,0.01062557571749334,0.24831511214647406,1.5619814727141357e-05,0.43386917479615655,70,255,255,255
263,5.260101967000082,8.933919391436916,-1.1677933686672506,-11.056041788476728,2.3414830762887777,0.9060611771918187,-0.19999302722311568,-0.017349267758825615,0.2445299300316064,1.323638207872957e-05,0.4354636415342784,70,255,255,255
264,5.280099989999144,8.98073159585317,-1.1495759180608935,-11.060041643634799,2.3406102208126995,0.9108725303178469,-0.19999275790356058,-0.04364277380390513,0.24056765630140908,1.3465977755422465e-05,0.43693055093335054,70,255,255,255
265,5.3000991709996015,9.027572576236931,-1.1312493315929375,-11.06404149310285,2.342049019188101,0.9163293233978063,-0.1999924734025649,0.07193991877007022,0.27283965399797183,1.4225049783433974e-05,0.4389782269034228,70,255,255,255
266,5.32010313399951,9.074429673143136,-1.1128155521869865,-11.068041338731295,2.3428548453102627,0.9216889702975571,-0.19999228142218337,0.04029130610808629,0.2679823449875416,9.599019076850235e-06,0.44086208879588934,70,255,255,255
267,5.340082421000261,9.121290881943791,-1.0942766195517128,-11.072041174369343,2.3430604400327186,0.9269466317636786,-0.19999178190236125,0.010279736122792649,0.26288307330607397,2.497599110581894e-05,0.4425952417369585,70,255,255,255
268,5.360090004000085,9.168145002256747,-1.075634571266943,-11.076041003305956,2.3427060156477464,0.9321024142384864,-0.19999144683068185,-0.017721219248601816,0.2577891237403872,1.6753583970602337e-05,0.4441897424427422,70,255,255,255
269,5.380074993998278,9.214981444766758,-1.0568915259616642,-11.080040821413723,2.341822125500547,0.9371522652639378,-0.19999090538834507,-0.044194507359966106,0.25249255127257,2.7072116837972837e-05,0.4456566830920632,70,255,255,255
270,5.4000978199983365,9.261846837152213,-1.0380376443030617,-11.084040651754682,2.343269619272685,0.9426940829301302,-0.19999151704794407,0.072374688606899,0.2770908833096205,-3.058297994937287e-05,0.4477047140143965,70,255,255,255
271,5.420095025998307,9.308728448851966,-1.0190751861785283,-11.088040492972215,2.344080584987654,0.9481229062266716,-0.19999206087668994,0.04054828574843494,0.2714411648270665,-2.719143729323914e-05,0.44958890246294314,70,255,255,255
272,5.4401263350009685,9.355614396317248,-1.000006390672298,-11.092040354686663,2.34429737326417,0.9534397753115198,-0.19999308572235094,0.010839413825805444,0.2658434542424071,-5.1242283050034754e-05,0.45132235583560604,70,255,255,255
273,5.460111909000261,9.402493355722983,-0.9808336116964945,-11.096040231273145,2.3439479702867594,0.9586389487901744,-0.19999382932410514,-0.01747014887053222,0.25995867393273064,-3.718008771053105e-05,0.4529171329384559,70,255,255,255
274,5.480120577998605,9.44935476775849,-0.9615591883923684,-11.100040124810882,2.3430706017752696,0.9637211652063048,-0.19999467688680905,-0.043868425574491,0.2541108208065189,-4.2378135195114686e-05,0.4543843278730778,70,255,255,255
275,5.500123604997498,9.496244926968203,-0.9421764626338432,-11.104040016478097,2.344507960485661,0.969136287926261,-0.19999458336072662,0.07186793551955528,0.270756135997812,4.676304122153141e-06,0.4564320456400007,70,255,255,255
276,5.520103201997699,9.543151018977337,-0.9226877797209887,-11.108039900031393,2.3453046004566835,0.9744341456427269,-0.19999417766483515,0.03983199855113995,0.2648928858232922,2.02847945738327e-05,0.45831594598556985,70,255,255,255
277,5.540173311997933,9.590061262422712,-0.903095354459374,-11.112039798579122,2.3455121722687515,0.9796212630807396,-0.19999492738643712,0.010378590603401516,0.25935587190063625,-3.748608009798704e-05,0.4600491343034934,70,255,255,255
278,5.560120823000034,9.636964183863848,-0.8834016505350869,-11.116039694587462,2.3451460720568016,0.9846851962143517,-0.1999948004169583,-0.01830501059749068,0.2531966566806064,6.348473941403254e-06,0.46164366755598313,70,255,255,255
279,5.580090895000467,9.683849082177094,-0.8636091061502915,-11.120039578798202,2.344244915662347,0.9896272192397714,-0.19999421053698796,-0.04505781972272116,0.2471011512709851,2.949399851645551e-05,0.46311063814827363,70,255,255,255
280,5.600061306999123,9.730762833433197,-0.8437135684902174,-11.124039473775179,2.345687562805175,0.9947768830037089,-0.19999474884886248,0.07213235714141097,0.2574831881968761,-2.6915593726389853e-05,0.4651586272168481,70,255,255,255
281,5.6200769469978695,9.777692694501571,-0.8237171806408102,-11.128039384045255,2.346493053418745,0.9998193924703583,-0.1999955135038463,0.04027453067848663,0.2521254733324685,-3.823274919148578e-05,0.46704277715993653,70,255,255,255
282,5.640084974998899,9.824626636705375,-0.803622132104373,-11.132039311403375,2.3466971101901954,1.0047524268218595,-0.19999636790594155,0.010202838572517248,0.24665171757505344,-4.272010476200072e-05,0.46877619510757795,70,255,255,255
283,5.660063249000814,9.871553251345762,-0.7834306921913341,-11.13603924798816,2.3463307320193607,1.0095719956519464,-0.19999682923929213,-0.018318908541733236,0.240978441504351,-2.3066667528520712e-05,0.470370939619408,70,255,255,255
284,5.680086412998207,9.918461969617905,-0.7631450678338125,-11.140039200759956,2.345435913607128,1.0142812178760778,-0.19999763858981714,-0.044740920611630486,0.23546111120657187,-4.046752625105898e-05,0.47183810457029174,70,255,255,255
285,5.70010579999871,9.965399433674667,-0.7427638596060461,-11.144039158877828,2.346873202838096,1.0190604113883246,-0.19999790589360128,0.07186446154841697,0.23895967561233888,-1.336518920633245e-05,0.4738859863265046,70,255,255,255
286,5.720119507997879,10.012352862692078,-0.7222889061644571,-11.148039126474583,2.3476714508705325,1.02374767207945,-0.19999837983771535,0.039912401621815086,0.23436303455626906,-2.369720570294387e-05,0.4757700375422204,70,255,255,255
287,5.74016585299978,10.059310321590077,-0.7017220263064028,-11.152039117863731,2.347872944899934,1.028343992902716,-0.19999956945747263,0.010074701470076608,0.229816041163305,-5.948098786467959e-05,0.47750336466067894,70,255,255,255
288,5.760100888001034,10.106260228753596,-0.6810652798203676,-11.15603911084271,2.347495358175932,1.0328373243017606,-0.19999964894893255,-0.018879336200096297,0.22466656995222567,-3.974572996084946e-06,0.4790980256096608,70,255,255,255
289,5.780109896997601,10.15319194626403,-0.6603206117607385,-11.160039108210242,2.3465858755217393,1.0372334029814503,-0.19999986837653164,-0.04547413270963041,0.2198039339844886,-1.0971379953955696e-05,0.4805651136827241,70,255,255,255
290,5.800118388000556,10.200152410232883,-0.6394889598172432,-11.164039114900824,2.348023198442621,1.0415825971747652,-0.2000003345291125,0.07186614604408836,0.2174597096657489,-2.330762904309558e-05,0.48261310831998067,70,255,255,255
291,5.820104993999848,10.247128716269495,-0.6185717770914845,-11.16803912605829,2.3488153018306286,1.0458591362879328,-0.20000055787328058,0.03960516940037362,0.21382695565837828,-1.116720840441121e-05,0.4844972633862567,70,255,255,255
292,5.8401002190003055,10.294108736480146,-0.5975705503507364,-11.172039139868774,2.3490010105324997,1.0500613370374043,-0.20000069052420877,0.009285435093560057,0.2101100374735798,-6.632546409091056e-06,0.4862306860472307,70,255,255,255
293,5.860085239997716,10.341081032049246,-0.576486830566022,-11.176039151357719,2.348614778454992,1.054185989235719,-0.200000574447201,-0.019311603875373784,0.20623260991572967,5.803850387786635e-06,0.48782543489532676,70,255,255,255
294,5.880084681997687,10.388034908996778,-0.5553221808725581,-11.180039160467473,2.3476938473766022,1.0582324846731932,-0.20000045548769768,-0.04604655391948187,0.202324771873712,5.9479751668700676e-06,0.48929260383557516,70,255,255,255
295,5.900065219997487,10.435017140237223,-0.5340799825872796,-11.184039150248774,2.3491115620222494,1.0621099142639265,-0.1999994890650063,0.0708857322823544,0.19387147953667205,4.832113456817999e-05,0.49133992307717517,70,255,255,255
296,5.920065217000229,10.48201485293343,-0.5127611152711131,-11.188039121876718,2.3498856348103607,1.0659433658083253,-0.19999858139721624,0.03870363940556798,0.1916725772199397,4.538338950357823e-05,0.4932234567794472,70,255,255,255
297,5.940092918997834,10.529016010504133,-0.4913664760735333,-11.192039085350542,2.3500578785351056,1.0697319598789912,-0.19999817369121975,0.008612186237250352,0.18942970353329835,2.0385299824565717e-05,0.49495630778553745,70,255,255,255
298,5.960122779000812,10.576009299956757,-0.46989702547564777,-11.196039050773136,2.3496644726311864,1.0734725298942764,-0.19999827112972474,-0.01967029519597041,0.18702850076426714,-4.871925249866349e-06,0.49655053071114047,70,255,255,255
299,5.9801244720001705,10.62298400953286,-0.4483538392084768,-11.200039018624658,2.3487354788051893,1.0771593133585466,-0.19999839257610164,-0.046449691299844886,0.18433917321350846,-6.072318845001812e-06,0.49801721580269526,70,255,255,255
300,6.000114277998364,10.669987083072275,-0.4267424880858879,-11.204038972029368,2.3501536769707267,1.080567556129447,-0.1999976702355344,0.07090990827687316,0.1704121385450228,3.611702836103792e-05,0.5000647453304936,70,255,255,255
301,6.02011676300026,10.717005621771545,-0.4050632344686025,-11.20803891272383,2.350926934963482,1.08396268086427,-0.1999970347230548,0.03866289963777225,0.16975623674115048,3.177562398012923e-05,0.5019484724960681,70,255,255,255
302,6.040100043999701,10.764027414558358,-0.38331647049225953,-11.212038836215465,2.351089639340641,1.0873381988171475,-0.1999961745817581,0.008135218857951543,0.16877589764388112,4.3007064834121866e-05,0.5036815014883966,70,255,255,255
303,6.060102735998953,10.8110410399334,-0.3615026355109205,-11.216038744520297,2.3506812687521057,1.0906917490669517,-0.19999541524159642,-0.020418529426757814,0.1676775124902028,3.796700808400555e-05,0.5052758881613388,70,255,255,255
304,6.080114719999983,10.858035804489582,-0.3396222319899398,-11.220038642531126,2.349738227809044,1.0940201760490342,-0.19999490054147423,-0.0471520471530793,0.16642134910413087,2.5735006109195435e-05,0.5067427239004457,70,255,255,255
305,6.100112097999954,10.905059045902041,-0.31765088377849415,-11.224038540449895,2.35116207062294,1.098567410572281,-0.19999489593847333,0.07119214069478996,0.2273617261623322,2.301500448553817e-07,0.5087905531039206,70,255,255,255
306,6.120116721998784,10.952097833169937,-0.29559015157651414,-11.228038439925138,2.351939363394818,1.103036610099001,-0.19999497376213218,0.038864638593902434,0.22345997633600323,-3.891182942777904e-06,0.5106745559711175,70,255,255,255
307,6.140131895997911,10.999140020039112,-0.2734416248621319,-11.232038345879985,2.352109343458812,1.10742633571911,-0.19999529774233815,0.008499003199700539,0.21948628100545853,-1.6199010298506566e-05,0.5124078386089387,70,255,255,255
308,6.160124522000842,11.04617411143771,-0.2512069822309543,-11.236038255716453,2.3517045699299013,1.111732131558882,-0.19999549182339088,-0.020238676445531567,0.2152897919885941,-9.704052636005933e-06,0.5140024586357341,70,255,255,255
309,6.180073625000659,11.093189175677326,-0.2288880243076411,-11.240038153058867,2.350753211980808,1.115947896165659,-0.1999948671206601,-0.047567897454650954,0.21078823033885175,3.123513653829901e-05,0.5154695090603859,70,255,255,255
310,6.20013703999939,11.140232597721896,-0.2064642317062519,-11.244038045076161,2.352171102228477,1.1211896300694613,-0.19999460086468115,0.07089451238344946,0.2620866951901113,1.3312798948172944e-05,0.5175171950234542,70,255,255,255
311,6.220114362000459,11.187291334058253,-0.1839381365787008,-11.248037925003656,2.3529368168178912,1.1263047563775532,-0.19999399637469453,0.03828572947070841,0.2557563154045943,3.0224499331626964e-05,0.519401066109477,70,255,255,255
312,6.240073532997485,11.234353041197945,-0.1613123188443207,-11.252037780693573,2.3530853569845562,1.131290886719005,-0.19999278449585997,0.007427008333248608,0.2493065170725891,6.0593941728165346e-05,0.521134227508618,70,255,255,255
313,6.260075128000608,11.281406247265355,-0.1385892790121247,-11.256037614341466,2.3526603033705458,1.1361519916098008,-0.19999168239461204,-0.021252680700530657,0.24305524453979543,5.5105062395949256e-05,0.5227287359958278,70,255,255,255
314,6.280070479999267,11.328440162321511,-0.11577153550237186,-11.260037426048658,2.3516957528077684,1.140887175487642,-0.19999058535958608,-0.04822752813886577,0.23675919389205213,5.4851751298407025e-05,0.5241956838040608,70,255,255,255
315,6.300082488000044,11.375502387042841,-0.0928419826845049,-11.26403723396022,2.3531112360664643,1.1464776408933481,-0.19999039557808526,0.07077416293479022,0.27952327028530616,9.489075040780559e-06,0.5262433033830324,70,255,255,255
316,6.320115415997861,11.422580028659473,-0.06980362912143126,-11.268037049148191,2.353882080831583,1.1519176781536817,-0.19999075939851466,0.03854223825592484,0.2720018630166759,-1.819102146946583e-05,0.5281271133956862,70,255,255,255
317,6.340120983997622,11.469660855748701,-0.04665953210245778,-11.272036873253445,2.354041354461425,1.1572048509486736,-0.19999120526267672,0.007963681492126007,0.2643586397495964,-2.229320810367974e-05,0.5298602186073277,70,255,255,255
318,6.360178391998488,11.51673353156443,-0.02341263015729827,-11.276036724392936,2.3536337907864775,1.1623450972579756,-0.19999255697458262,-0.020378183747383538,0.25701231546510345,-6.75855952959048e-05,0.5314546754020378,70,255,255,255
319,6.380107327000587,11.563787001493772,-6.610899908520568e-05,-11.280036578441988,2.352673496467104,1.167326057910653,-0.1999927024526485,-0.048014715968663246,0.2490480326338713,-7.27390329369193e-06,0.5329215756531712,70,255,255,255
320,6.400172770998324,11.61086887444996,0.023393882113734197,-11.284036441078431,2.3540936478094254,1.17299955564097,-0.1999931318221033,0.07100756711606504,0.28367488651585515,-2.1468472740260314e-05,0.5349695515788927,70,255,255,255
321,6.420122439998522,11.657965954195454,0.046963857084395134,-11.28803629590088,2.354853987274744,1.178498748533047,-0.1999927411224785,0.03801697326593345,0.27495964460384437,1.9534981238994442e-05,0.5368536894305564,70,255,255,255
322,6.4401566259984975,11.705066082390504,0.07064053610351376,-11.292036154549981,2.3550064097525,1.1838339509559308,-0.19999293245503486,0.007621123887801673,0.2667601211441982,-9.566627817314544e-06,0.5385870962540871,70,255,255,255
323,6.4601092119992245,11.752157564198226,0.0944204983022314,-11.296036001849815,2.354574090386103,1.188998109935882,-0.19999236499172143,-0.021615968319848022,0.2582079489975583,2.8373165671002898e-05,0.5401818305317353,70,255,255,255
324,6.480093030000717,11.799229520248572,0.1183004267756937,-11.30003583354742,2.353597802517311,1.193996423673115,-0.19999158488024396,-0.04881439343961036,0.24991568686165888,3.900557387362391e-05,0.5416489860671717,70,255,255,255
325,6.501001022999844,11.846329691352999,0.14229127532008365,-11.304035663783573,2.35500855522138,1.199542427219497,-0.19999151180761707,0.07053763520345147,0.27730017731910034,3.6536313452184555e-06,0.5436966263691525,70,255,255,255
326,6.520193174997985,11.89344243922089,0.16638792392813379,-11.308035234406221,2.3556373933945536,1.2048324304025062,-0.19997853113242592,0.03144190865866081,0.2645001591504589,0.0006490337595577433,0.5455804554469748,70,255,255,255
327,6.540089501999319,11.940555297096251,0.19058685522915042,-11.31203452850382,2.3556428937681186,1.2099465650508323,-0.19996470487995568,0.00027501867824808457,0.2557067324163096,0.0006913126235111866,0.5473135781985713,70,255,255,255
328,6.560078770999098,11.987656843466835,0.21488479256598392,-11.316033560363397,2.3550773185292053,1.2148968668416742,-0.1999515929788221,-0.028278761945658815,0.24751508954209367,0.000655595056679309,0.54890805113004,70,255,255,255
329,6.5800862119976955,12.03473641835993,0.23927853526984558,-11.320032349649377,2.3539787446547558,1.219687135193083,-0.19993946429896794,-0.05492869372247622,0.23951341757043632,0.000606433992707156,0.5503749662269913,70,255,255,255
330,6.6000747100006265,12.081845071313657,0.2637783763125759,-11.324031226045,2.355432647686323,1.2249920521365145,-0.1999438197810571,0.07269515157838002,0.2652458471715845,-0.00021777410445847356,0.5524231060138965,70,255,255,255
331,6.620072085999709,12.128969675402848,0.28838098583063543,-11.32803018528177,2.356230204459552,1.2301304759029756,-0.19994796183855643,0.03987783866143291,0.25692118832305755,-0.00020710287496614188,0.5543073946178493,70,255,255,255
332,6.640190568999969,12.176098253338434,0.31308332510874354,-11.332029261969003,2.3564288967792932,1.2351169639054056,-0.1999538343616683,0.00993461598706391,0.24932440012149693,-0.0002936261555935571,0.5560409401334858,70,255,255,255
333,6.6600727810000535,12.223218784043334,0.3378818791669207,-11.336028412844811,2.3560265352450167,1.2399277029088567,-0.19995754379041616,-0.020118076713832256,0.2405369501725545,-0.00018547143739372496,0.5576358020078714,70,255,255,255
334,6.680089068999223,12.27032040962386,0.36277347315772734,-11.340027640028639,2.3550812790262716,1.244579699540333,-0.19996135919136124,-0.04726281093724749,0.23259983157381914,-0.00019077004725306934,0.5591030749323062,70,255,255,255
335,6.700066762998176,12.317450718222638,0.38776356167781617,-11.34402692417563,2.3565154299388524,1.2495044260044414,-0.19996420734956483,0.07170754562904147,0.246236323205419,-0.00014240791017947063,0.5611508488396321,70,255,255,255
336,6.720088640999165,12.364596650374416,0.4128491789177963,-11.348026270014321,2.3572966075889346,1.2542808619990073,-0.1999672919345328,0.03905888250410072,0.23882179972829998,-0.00015422924839864072,0.563034800834372,70,255,255,255
337,6.740120710997871,12.41174593779857,0.43802740602309037,-11.352025685152267,2.357464371207662,1.2589113552647029,-0.19997075689728672,0.0083881809363886,0.2315246632847756,-0.00017324813769561964,0.5647680366695326,70,255,255,255
338,6.760161202000745,12.458887069890086,0.46329536914970565,-11.356025179324412,2.357056604575794,1.263398156330763,-0.19997470860728564,-0.020388331593416353,0.22434005330300688,-0.00019758549994597363,0.5663626136378804,70,255,255,255
339,6.78013710599771,12.506009033050367,0.48865008482857364,-11.36002474088731,2.3560981580140306,1.2677357839433994,-0.19997807814486443,-0.04792232808815733,0.2168813806318195,-0.0001684768789399771,0.5678296244487604,70,255,255,255
340,6.8001286319995415,12.553159443018533,0.5140945408491729,-11.364024342776133,2.3575204984083045,1.2722228010299628,-0.19998009444114945,0.07111701971368856,0.22435085432817403,-0.00010081481425092131,0.5698773796293884,70,255,255,255
341,6.8201308059979056,12.600325159286957,0.539626167464206,-11.368023983903983,2.358285813421207,1.2765813307516527,-0.19998205639252534,0.038265750645113616,0.2179264860844914,-9.809756879436415e-05,0.5717613143955663,70,255,255,255
342,6.840140402000543,12.647493829038803,0.5652424257889412,-11.372023665561436,2.358433487592283,1.2808129162367645,-0.19998408287263292,0.007383708553810653,0.21157927425558687,-0.00010132400537890551,0.57349453438045,70,255,255,255
343,6.8601251559994125,12.694653756406257,0.5909407398034637,-11.376023380947343,2.3579963683727665,1.2849157007261238,-0.19998576929531975,-0.02185596097584641,0.20513922446796262,-8.432113434153621e-05,0.5750890967665429,70,255,255,255
344,6.880107748998853,12.741793954346196,0.616718552057499,-11.380023122923138,2.3570098969969346,1.2888906127017628,-0.19998709878976378,-0.04932356879159139,0.19874559878194975,-6.647472220144834e-05,0.5765560941617484,70,255,255,255
345,6.90012412699798,12.788962559278838,0.6425768259183462,-11.38402290640835,2.358430246632105,1.2929136930423553,-0.19998917426051943,0.0710174817585183,0.201154017029624,-0.00010377353778240339,0.578604068968196,70,255,255,255
346,6.920128645997465,12.836146411477527,0.6685135316901476,-11.388022730704913,2.3591926099344716,1.2968352885900678,-0.1999912148282046,0.038118165118321556,0.19607977738563176,-0.00010202838425732441,0.5804882057901279,70,255,255,255
347,6.940119205999508,12.88333307173479,0.6945266051453934,-11.392022590624476,2.359333012863128,1.3006536727622913,-0.1999929959781362,0.007020146432810126,0.19091920861117573,-8.905749657972528e-05,0.5822216116663053,70,255,255,255
348,6.9601042850008525,12.930510825163504,0.720613971619536,-11.396022479479067,2.3588876714356988,1.3043683237071304,-0.19999444272952838,-0.022267071371453007,0.18573254724195865,-7.23375696095041e-05,0.5838163450723884,70,255,255,255
349,6.980122110999218,12.977668778811092,0.7467736343665036,-11.400022401414736,2.357897682379357,1.307983137348381,-0.19999609678344366,-0.04949945281709711,0.18074068206253524,-8.270269576327038e-05,0.5852834998059849,70,255,255,255
350,7.000084282997705,13.024854860226291,0.7730042106362297,-11.40402234615008,2.359304070760026,1.311528813486305,-0.19999723676721212,0.07031941903345373,0.17728380689619572,-5.6999188423501046e-05,0.5873312160600198,70,255,255,255
351,7.020114832997933,13.072055981772785,0.7993043462081277,-11.408022322181543,2.3600560773246757,1.3150067785949011,-0.19999880157313052,0.037600328232476166,0.17389825542980142,-7.824029592026771e-05,0.5892151150137319,70,255,255,255
352,7.040142948997527,13.119259809219418,0.8256726513676701,-11.412022336666826,2.360191372331662,1.3184152579771173,-0.2000007242641704,0.0067647503493057926,0.17042396911081426,-9.613455199428134e-05,0.590948302051147,70,255,255,255
353,7.0601149939975585,13.166454564632268,0.8521075851097961,-11.416022378329926,2.359737770642503,1.3217466871063,-0.20000208315492568,-0.02268008445793601,0.16657145645913185,-6.794453776373666e-05,0.592542834125569,70,255,255,255
354,7.080129128000408,13.21362932595351,0.8786076865656539,-11.42002244999639,2.3587380660621218,1.325005072792892,-0.20000358332323337,-0.049985229019063215,0.16291928432960012,-7.500841538493619e-05,0.5940098036340371,70,255,255,255
355,7.10014177499761,13.260832077727704,0.905201326595751,-11.424022537536631,2.36013758870967,1.3296820015048547,-0.2000043770121083,0.06997613237739664,0.233846435598142,-3.968444374596869e-05,0.5960575938759467,70,255,255,255
356,7.120078225998441,13.308049412768035,0.9318856397965692,-11.42802261952248,2.3608667520165625,1.334215660040911,-0.20000409929244475,0.036458165344625204,0.22668292680280877,1.3885983177835959e-05,0.5979415608985035,70,255,255,255
357,7.140079307999258,13.355268911804874,0.9586579344569858,-11.432022696502262,2.360974951841946,1.3386147330208253,-0.20000384898910617,0.005409991269161196,0.21995364899572256,1.2515166929821797e-05,0.5996748105592558,70,255,255,255
358,7.160168532998796,13.40247917931997,0.9855157398640471,-11.436022797205174,2.360513375754785,1.342890270353067,-0.20000503514557794,-0.023078804358041882,0.2137768666120825,-5.9307823587650965e-05,0.6012694002471478,70,255,255,255
359,7.180172886000946,13.44966924670621,1.0124564038964434,-11.440022921439663,2.3595033693119905,1.3470332016198219,-0.20000621172446284,-0.05050032213974154,0.20714656333774628,-5.882894424508178e-05,0.6027364227600085,70,255,255,255
360,7.20011291999981,13.496887227910488,1.0395045188359044,-11.444023060811379,2.360899060213918,1.3524057469730495,-0.20000696858578978,0.06978454509638032,0.2686272676613852,-3.784306634677104e-05,0.6047842843714468,70,255,255,255
361,7.220098865000182,13.544119854357797,1.0666564094458628,-11.448023209691494,2.3616313223654473,1.35759453049792,-0.2000074440057058,0.03661310757645442,0.25943917624352064,-2.3770995801059014e-05,0.6066683170539702,70,255,255,255
362,7.240118494999479,13.591354737947237,1.0939085325751066,-11.452023373552894,2.3617441794719873,1.362606156462189,-0.2000081930700064,0.005642855327003815,0.2505812982134501,-3.7453215029348286e-05,0.6084016271218916,70,255,255,255
363,7.26016404999973,13.638580313212538,1.1212574570222043,-11.456023565812124,2.36127876326502,1.367446222354883,-0.2000096129615409,-0.023270810348360982,0.2420032946346964,-7.099457672565812e-05,0.6099962723843794,70,255,255,255
364,7.280432567000389,13.685786436987124,1.1487003162933644,-11.460023870383141,2.360306188729352,1.3721429635580136,-0.20001522855085546,-0.04862872678339292,0.23483706015653905,-0.00028077946572796497,0.611463346025868,70,255,255,255
365,7.3001941590009665,13.733020444452062,1.1762576097531061,-11.464024192274804,2.3617003732469546,1.3778646729870834,-0.2000160945831383,0.06970922588012884,0.28608547145349394,-4.3301614141511013e-05,0.6135115022959903,70,255,255,255
366,7.320112220997544,13.780268825972378,1.203924909743107,-11.468024503712686,2.362419076015758,1.3833649995000497,-0.2000155718940963,0.035935138440186254,0.27501632564831113,2.6134452098980354e-05,0.6153958060645027,70,255,255,255
367,7.34013499700086,13.827519194577524,1.2316981228737425,-11.472024812114034,2.3625184302573388,1.388660656531774,-0.20001542006741949,0.004967712079039899,0.2647828515862187,7.591333841150405e-06,0.6171293655315342,70,255,255,255
368,7.3601241129981645,13.874759795623836,1.2595731532654824,-11.476025113684718,2.362030052315582,1.3937515195869938,-0.20001507853419226,-0.02441889708784828,0.2545431527609896,1.7076661362053214e-05,0.6187242402412031,70,255,255,255
369,7.380073542997707,13.921979468379167,1.2875458951745316,-11.480025392169665,2.360983637766552,1.3986370954524558,-0.2000139242472966,-0.052320727451487414,0.2442787932730961,5.771434478291093e-05,0.6201915249740985,70,255,255,255
370,7.400074376000703,13.969226719645144,1.315634485301391,-11.484025669462042,2.362362563298873,1.4044295063429753,-0.20001386461886383,0.06894627661604469,0.2896205445259734,2.981421639097759e-06,0.6222391737072623,70,255,255,255
371,7.420073556997522,14.016488296488294,1.3438343901922238,-11.488025944927656,2.3630788421574676,1.4099952445416388,-0.200013773280696,0.0358139429297295,0.2782869099331742,4.566908391900881e-06,0.6241230105417731,70,255,255,255
372,7.440086423001048,14.063751762022248,1.3721412027036648,-11.49202622235249,2.3631732766976588,1.4153406255720502,-0.20001387124162545,0.004721727009555199,0.26726905152057445,-4.898046472384676e-06,0.625856140429523,70,255,255,255
373,7.460080752000067,14.111005363233499,1.4005505651720904,-11.496026499360386,2.3626800605625653,1.4204681234212855,-0.20001385039489686,-0.024660806754682962,0.2563748924617639,1.0423364296685556e-06,0.6274506199262528,70,255,255,255
374,7.480079870998452,14.158238083400267,1.429058228656751,-11.500026775251232,2.3616360083384187,1.4253831742330278,-0.2000137945423143,-0.052202611207328165,0.2457525405871155,2.7926291285840232e-06,0.6289175410632444,70,255,255,255
375,7.500145359997987,14.205498184881282,1.457679171684404,-11.504027039624386,2.363005074050749,1.4310471513826442,-0.20001321865765992,0.06845328561650987,0.2831988574808142,2.8794232718371005e-05,0.6309650598337888,70,255,255,255
376,7.520078773999558,14.252772195560125,1.4864086451215646,-11.508027271440392,2.3637005339421093,1.4364736718580253,-0.20001159080025757,0.03477299456802463,0.2713260237690571,8.139287011760254e-05,0.6328487771026897,70,255,255,255
377,7.540114020997862,14.300047755258232,1.5152422555381695,-11.512027483560813,2.3637779849054095,1.4416805208302415,-0.20001060602099174,0.0038725481650092597,0.260342448610807,4.923896329075972e-05,0.6345817969900786,70,255,255,255
378,7.5600745499978075,14.347313003831733,1.5441755271640187,-11.516027664197269,2.3632624286750543,1.4466635812924633,-0.2000090318228474,-0.0257778115177576,0.2491530231110941,7.870990721692284e-05,0.6361761752864763,70,255,255,255
379,7.580077742997673,14.394556945767985,1.5732041957128322,-11.520027815971542,2.362197096812619,1.4514334274406708,-0.20000758871367316,-0.0532665931217684,0.2384923074103813,7.215545871280815e-05,0.6376430033191622,70,255,255,255
380,7.600093786000798,14.441828269299293,1.6023407878152058,-11.524027963617645,2.36356617656547,1.4568296051186795,-0.20000738230511217,0.06845398764254407,0.26980888390043867,1.0320428050297759e-05,0.6396906518841675,70,255,255,255
381,7.620072989000619,14.489113630861906,1.6315807999209055,-11.528028100491992,2.3642680781306162,1.4620006052849799,-0.20000684371737376,0.035095078257322054,0.2585500083150225,2.6929386920948595e-05,0.6415744885639724,70,255,255,255
382,7.640073496000696,14.536400533217844,1.6609198850330886,-11.532028227184131,2.3643451177968573,1.4669542556091497,-0.20000633460695302,0.003851983312046503,0.24768251620849502,2.5455521036943374e-05,0.6433076183093929,70,255,255,255
383,7.660127644998283,14.58367739815253,1.690353928917905,-11.536028361429967,2.363843246734263,1.4717021942408162,-0.20000671229174777,-0.02509355312972472,0.23739693158331843,-1.888423973792075e-05,0.6449020976751797,70,255,255,255
384,7.680180961000588,14.63093335553855,1.7198789102356136,-11.540028519622604,2.362797869301018,1.476249065885431,-0.20000790963182488,-0.052268871662251026,0.22734358223074635,-5.9867003855684775e-05,0.6463690186917036,70,255,255,255
385,7.700138717998925,14.678216872855025,1.7495045808182943,-11.544028695301245,2.3641758658237144,1.4812835291340336,-0.20000878393207686,0.06889982613482859,0.25172316243012705,-4.371501259844979e-05,0.6484172222395526,70,255,255,255
386,7.7201593030004005,14.725514708750424,1.7792268304122338,-11.548028893722845,2.3648917947699672,1.4861124796969796,-0.2000099210800461,0.035796447312645086,0.24144752814729387,-5.685739846181259e-05,0.6503015695035735,70,255,255,255
387,7.740103079999244,14.772814147658977,1.8090414515920286,-11.552029095213994,2.364971945427628,1.4907310589897358,-0.2000100745573905,0.004007532883036902,0.23092896463780788,-7.673867221308361e-06,0.6520351689864728,70,255,255,255
388,7.7600761049980065,14.820103327977636,1.8389444136524569,-11.556029290636129,2.3644590159329466,1.4951481030214187,-0.2000097711067827,-0.025646474734057012,0.2208522015841412,1.5172530390961114e-05,0.6536300805107402,70,255,255,255
389,7.780079977997957,14.867371214926886,1.8689318623969164,-11.560029481280077,2.363394347462446,1.4993724372229802,-0.20000953219743967,-0.05323342352504401,0.21121671007807974,1.1945467151053268e-05,0.6550973991130662,70,255,255,255
390,7.800075970000762,14.914666278925523,1.8990111477047658,-11.56402966457326,2.364753199931851,1.5039642653924665,-0.20000916465917468,0.06794262347024471,0.2295914084743118,1.8376913249240623e-05,0.6571449981205782,70,255,255,255
391,7.820106293998833,14.961975314284981,1.9291786292411208,-11.568029850367134,2.365451767972892,1.508374076817752,-0.20000928969372017,0.03492840205204928,0.22049057126427085,-6.251727274142471e-06,0.6590287892074893,70,255,255,255
392,7.840082098999119,15.009285710843036,1.9594306078950119,-11.572030030471987,2.3655198279027596,1.5125989326945581,-0.20000900524268744,0.0034029964933792733,0.21124279384029965,1.4222551635800773e-05,0.6607618770074475,70,255,255,255
393,7.860078826997778,15.056585679822875,1.989763523531616,-11.576030203893954,2.3649984489919764,1.5166457818302113,-0.200008671098307,-0.026068945539168276,0.20234245678265106,1.6707219021638853e-05,0.6623563177834091,70,255,255,255
394,7.8800688150004135,15.103864134890433,2.0201738833016516,-11.580030367552691,2.3639227533778744,1.5205179885017857,-0.20000818293687422,-0.05378478070509507,0.19361033357871937,2.4408071638171158e-05,0.6638232032972937,70,255,255,255
395,7.900127903998509,15.15116962565019,2.050666743465357,-11.58403051909022,2.365274537987938,1.5246430081852584,-0.20000757687642026,0.06758923050317733,0.2062509841736362,3.03030226978529e-05,0.6658707612091183,70,255,255,255
396,7.92009979499926,15.198488751226606,2.0812388552877263,-11.588030649996472,2.3659562788207373,1.5286055911184675,-0.2000065453126033,0.03408704163995857,0.19812914666045112,5.157819084775084e-05,0.6677545144879968,70,255,255,255
397,7.940075138998509,15.245808904030552,2.111887046884541,-11.592030753409954,2.3660076401973353,1.5324095798407371,-0.20000517067410312,0.0025680688298943544,0.19019943611348267,6.873192501044567e-05,0.6694875675045651,70,255,255,255
398,7.960076671999559,15.293118315089496,2.142608281164005,-11.596030831305331,2.3654705529471896,1.5360617139732056,-0.20000389476885114,-0.026854362507284346,0.1826067066234196,6.379526259830959e-05,0.6710819762798078,70,255,255,255
399,7.980071292000503,15.340405916634445,2.173399568915154,-11.600030883367458,2.364380077247488,1.5395643875574365,-0.2000026031062993,-0.05452378498507304,0.17513367921154233,6.458312759197171e-05,0.6725488323530312,70,255,255,255
400,8.000071212998591,15.38772047085375,2.2042639230347563,-11.604030924350388,2.365727710965258,1.5432177059801229,-0.20000204914651817,0.06738168588848747,0.18266592113432245,2.7697989057051675e-05,0.6745963663001107,70,255,255,255
401,8.020070260998182,15.435048654253798,2.2351987749661117,-11.608030954548662,2.3664091700023517,1.546742596567774,-0.20000150991368293,0.03407295185468051,0.17624452938255497,2.6961641762884847e-05,0.6764800975314238,70,255,255,255
402,8.04016051399958,15.482378212799906,2.2662018309580088,-11.612031003442,2.3664779273054397,1.5501527995948416,-0.20000244466697828,0.003437865154402253,0.170510151353382,-4.67376647674822e-05,0.6782131302642319,70,255,255,255
403,8.060083651998866,15.529697090731236,2.2972703979364772,-11.616031045234632,2.3659438965665394,1.5534283489234348,-0.2000020896315974,-0.026701536945013427,0.16377746642966295,1.775176904381115e-05,0.6798075203784153,70,255,255,255
404,8.08023988199784,15.576994718615982,2.3284024363195908,-11.62003113027933,2.364881394237303,1.5566019191556721,-0.20000425223491242,-0.05312511646183582,0.15867851161186763,-0.00010813016575109136,0.681274359283464,70,255,255,255
405,8.100093278000713,15.624319595048423,2.359630497750964,-11.624031236034337,2.3662438216220933,1.5614030715686638,-0.20000528775042856,0.06812136923952217,0.24005762064958414,-5.1775775806561786e-05,0.6833227281092759,70,255,255,255
406,8.120115900997916,15.671658437706999,2.39095075610236,-11.62803136832719,2.3669421329287537,1.566012917569782,-0.2000066146425684,0.03491556533301177,0.23049230005591004,-6.634460699203593e-05,0.6852072274290227,70,255,255,255
407,8.14012575399829,15.718998697999487,2.4223594341973653,-11.632031528506904,2.367013014624388,1.5704339047502638,-0.2000080089857576,0.003544084781722301,0.2210493590240965,-6.971715946055279e-05,0.68694096680319,70,255,255,255
408,8.160054240001045,15.766328317606593,2.453852629109152,-11.636031691759504,2.366480980355326,1.574659745589313,-0.20000816263002244,-0.026601713453096032,0.21129204195246043,-7.682213241932967e-06,0.6885360070274237,70,255,255,255
409,8.18007890899753,15.813636286518859,2.4854267861731865,-11.64003186553349,2.365398445613277,1.5787078532017351,-0.20000868869936703,-0.05412673710245475,0.20240538062110436,-2.6303467229232824e-05,0.6900034440337187,70,255,255,255
410,8.200074317999679,15.860970935893171,2.5171105060478007,-11.644032020043065,2.366732468715626,1.5841859937307086,-0.20000772547872311,0.06670115511746033,0.2739070264486736,4.816103219620893e-05,0.6920508874787159,70,255,255,255
411,8.220068010999967,15.90831890928041,2.548898985305665,-11.648032154178637,2.3673986693619353,1.5894239628932012,-0.20000670677855642,0.03331003231546692,0.26189845812463,5.093500833500131e-05,0.6939345354481132,70,255,255,255
412,8.240090801999031,15.955667723413578,2.580787617464451,-11.652032276241147,2.3674407066583374,1.5944316079393008,-0.2000061031255391,0.002101864820096999,0.25038225230497946,3.018265086668359e-05,0.6956674915799589,70,255,255,255
413,8.260069498999655,16.003005501575707,2.6127717964816193,-11.656032379942722,2.3668889081064015,1.5992089508584006,-0.20000518507871193,-0.027589927596784136,0.23886714595499225,4.59023413582893e-05,0.6972618112212569,70,255,255,255
414,8.280094565998297,16.050321245694395,2.6448471614790376,-11.660032474240534,2.3657872059343945,1.6037682498709076,-0.2000047148905467,-0.05508510860035942,0.22796495062534738,2.3509408261540576e-05,0.6987285852912509,70,255,255,255
415,8.300102438999602,16.097663753160244,2.677039173763869,-11.664032564367771,2.3671253732924975,1.6096006142415538,-0.2000045063618514,0.06690836790514654,0.29161821853230374,1.0426434763816106e-05,0.7007763956467393,70,255,255,255
416,8.320090880999487,16.14501963317488,2.709342417649468,-11.668032646731906,2.367794000731828,1.6151621942799526,-0.20000411820669706,0.03343137196652224,0.27807900191993484,1.9407757716916052e-05,0.7026603811737886,70,255,255,255
417,8.340118309999525,16.192376401750153,2.7417517279713834,-11.67203273044422,2.367838428763634,1.6204655160957826,-0.2000041856157218,0.0022214015902948248,0.2651660907915043,-3.3704512379939544e-06,0.704393647858674,70,255,255,255
418,8.360075600998243,16.239722098073898,2.774261893478453,-11.676032801623004,2.3672848161873046,1.6255082753534875,-0.2000035589391994,-0.027680628816470598,0.2521379628852509,3.133382611969493e-05,0.7059882532087686,70,255,255,255
419,8.380118155000673,16.287045769539898,2.806868080689383,-11.680032874523663,2.3661835733000443,1.6303093605464842,-0.20000364503300452,-0.05506214436302548,0.24005425964983274,-4.304690255252375e-06,0.7074552901308555,70,255,255,255
420,8.400102985000558,16.33439621729109,2.8395925558164827,-11.684032952741285,2.3675223875596236,1.6362237563549864,-0.2000039108811119,0.06694071297896098,0.2957197904251123,-1.3292405370096683e-05,0.7095032887496129,70,255,255,255
421,8.420099891998689,16.381760064136355,2.872429615356202,-11.688033034841943,2.368192342263234,1.6418529769859658,-0.20000410503289326,0.033497735180499255,0.2814610315489674,-9.707589066709765e-06,0.7113874474788697,70,255,255,255
422,8.44009023900071,16.4291246930855,2.905373700246465,-11.692033117372334,2.3682314474573296,1.6472042445131558,-0.2000041265195473,0.0019552597047831632,0.2675633763594978,-1.0743327012729953e-06,0.713120873509786,70,255,255,255
423,8.460093757999857,16.476478285066776,2.9384194491355085,-11.696033201300706,2.3676795990637114,1.6522874444521782,-0.20000419641855724,-0.027592419680917857,0.2541599969511228,-3.4949504969516987e-06,0.714715625458229,70,255,255,255
424,8.480087200998241,16.523809715568675,2.971561632605359,-11.700033284310653,2.3665715250949497,1.6571091734925365,-0.20000415049733097,-0.055403698438086124,0.2410864520179099,2.2960613138833796e-06,0.7161827972507965,70,255,255,255
425,8.500082892998762,16.57116768340844,3.004819499633143,-11.704033361149426,2.3678983919883,1.662893351389195,-0.2000038419386192,0.06634334466750191,0.2892088948329228,1.542793558886868e-05,0.7182305039057899,70,255,255,255
426,8.520076371998584,16.618538802730058,3.0381872799219662,-11.708033429977633,2.368555966080839,1.668389014441151,-0.20000344141032544,0.032878704626968513,0.2747831525978066,2.0026414688123495e-05,0.7201143940283838,70,255,255,255
427,8.540137010997569,16.665910684698495,3.0716595562102245,-11.712033510570262,2.368594098421934,1.6736138144129218,-0.20000402963145653,0.0019066170547556993,0.26123999858853764,-2.94110565538519e-05,0.7218475729411703,70,255,255,255
428,8.560089263999544,16.713271335753404,3.1052307742628567,-11.71603358681346,2.3680325527454045,1.6785609026316182,-0.20000381215994095,-0.02807728382648156,0.24735441093481803,1.0873575778391764e-05,0.7234420975409338,70,255,255,255
429,8.580076882997673,16.7606096130887,3.138895650989433,-11.720033654884285,2.3669138667647744,1.683243836328817,-0.20000340354123056,-0.05593429903149172,0.23414668485993873,2.0430935519899496e-05,0.7249090601727163,70,255,255,255
430,8.600085882997519,16.80797428781247,3.1726707579153324,-11.724033713550085,2.3682337361885746,1.6887553462949703,-0.20000293328999338,0.06599347119001608,0.27557549830767036,2.351256185897932e-05,0.7269567203232752,70,255,255,255
431,8.620113381999545,16.855352080598657,3.2065505577066427,-11.728033772080977,2.3688896393093692,1.693989989565523,-0.20000292654459878,0.032795156039744366,0.26173216352764417,3.372697306158745e-07,0.7288405676617894,70,255,255,255
432,8.640082300000358,16.90273030043266,3.2405295165431443,-11.732033820445166,2.368910991700152,1.6989479418250737,-0.20000241820946962,0.00106761953912482,0.2478976129775281,2.541675645845176e-05,0.7305737072132225,70,255,255,255
433,8.660105119000946,16.950097189560676,3.2746024223175247,-11.736033866477351,2.368344456400861,1.7036452887190183,-0.2000023016093224,-0.02832676496453157,0.2348673446972347,5.830007361429246e-06,0.7321681956005409,70,255,255,255
434,8.680077798999264,16.997441553378458,3.308764087348843,-11.740033901501402,2.3672181908890173,1.7080832515658961,-0.20000175120258232,-0.056313275592184464,0.2218981423438906,2.7520337003400508e-05,0.7336351249168739,70,255,255,255
435,8.700079422000272,17.044812542482337,3.3430288209758876,-11.744033955166888,2.36854945519394,1.7132366813522373,-0.20000268327426537,0.06656321524614084,0.2576714893170544,-4.660358415239929e-05,0.735683408817938,70,255,255,255
436,8.72007226599817,17.092196742873377,3.3773912770859713,-11.748034023979535,2.369210019551921,1.7181228055041908,-0.2000034406323749,0.033028217899038204,0.2443062075976805,-3.786790547652408e-05,0.7375678300069171,70,255,255,255
437,8.74011555800098,17.13958168568813,3.4118464144282235,-11.752034120773857,2.3692471407375892,1.722756867112604,-0.2000048397160311,0.001856059283421807,0.23170308042065568,-6.995418281036114e-05,0.7393014975007778,70,255,255,255
438,8.760081807999086,17.186955402472663,3.4463891314461357,-11.756034232916079,2.3686858392266346,1.7271358508956098,-0.20000560711109186,-0.028065075547742957,0.2189491891502917,-3.836975303783685e-05,0.7408964715951296,70,255,255,255
439,8.78005861299971,17.234306694617935,3.4810145219350277,-11.760034351883501,2.3675646072636742,1.7312695244446041,-0.20000594837108124,-0.056061598148022806,0.20668367744971072,-1.7062999469047435e-05,0.7423638477619333,70,255,255,255
440,8.800081763998605,17.281684373594825,3.5157342169565053,-11.764034478443623,2.368883948844437,1.735984751073875,-0.20000632800612544,0.06596707903814414,0.23576133146354983,-1.898175221085041e-05,0.7444118500931494,70,255,255,255
441,8.820073934999527,17.329075026854273,3.550543306073447,-11.768034609433109,2.3695326629723508,1.7404544558470796,-0.20000654947427202,0.03243570639567306,0.22348523866022574,-1.107340732814377e-05,0.7462960122378682,70,255,255,255
442,8.840079269000853,17.376466067962912,3.5854370675123324,-11.772034746083492,2.3695520554320457,1.7446880719442703,-0.20000683251919218,0.0009696229847429017,0.21168080485953555,-1.4152246008342084e-05,0.7480294414110096,70,255,255,255
443,8.860055873999954,17.42384557312002,3.620410846427465,-11.776034880350078,2.368975257855324,1.7486889457566277,-0.20000671332937212,-0.028839878836089294,0.2000436906178671,5.959491003210138e-06,0.7496241962502996,70,255,255,255
444,8.880056119000074,17.471202428058433,3.6554602058078185,-11.780035012239471,2.367842746920656,1.7524679690176634,-0.20000659446961616,-0.05662554673339626,0.18895116305178172,5.9429877973526946e-06,0.7510913707024465,70,255,255,255
445,8.900101343999268,17.518585433756492,3.6905944644895357,-11.784035141255757,2.3691502849029034,1.7567129340858614,-0.20000645081423618,0.06537689911237221,0.21224825340989306,7.182768999081102e-06,0.75313911453629,70,255,255,255
446,8.920117477999156,17.5659812599883,3.725809320872458,-11.788035272527774,2.3697913115903533,1.76074281914611,-0.20000656360087435,0.03205133437250307,0.20149425301243928,-5.639331908002809e-06,0.755023038863426,70,255,255,255
447,8.940123783999297,17.61337732437906,3.7611005745053703,-11.792035407728065,2.3698032195380345,1.7645626816456215,-0.20000676001455522,0.000595397384057339,0.19099312497557186,-9.820684043454486e-06,0.7567562492443912,70,255,255,255
448,8.960181694998028,17.660761964251407,3.796464301702718,-11.796035564936131,2.3692319936173907,1.7681863598673893,-0.20000786040337165,-0.028561296032185712,0.18118391108839438,-5.5019440820786025e-05,0.7583508027948792,70,255,255,255
449,8.98013618099867,17.708123904007852,3.831896403681667,-11.800035728015496,2.3680969878223004,1.77160509894744,-0.20000815396822394,-0.056750289754505356,0.17093695400253628,-1.467824261508488e-05,0.7598177920613282,70,255,255,255
450,9.000105527000414,17.75551177656077,3.8674038801523847,-11.804035878775034,2.3693936276459064,1.7753738235358745,-0.2000075379768608,0.06483199118030614,0.18843622942172367,3.079956815685292e-05,0.7618654136046815,70,255,255,255
451,9.020106153999222,17.802912207352684,3.9029829995813974,-11.808036017913357,2.370021539595672,1.778955971450646,-0.20000695691619733,0.0313955974882818,0.17910739573857093,2.9053033173437326e-05,0.7637492254245667,70,255,255,255
452,9.040070544997434,17.85031248825118,3.938630035336846,-11.812036134510238,2.3700140449248126,1.7823517877724464,-0.20000582984407922,-0.000374733542978678,0.16979081609001834,5.63536059051406e-05,0.7654823322988611,70,255,255,255
453,9.060095787001046,17.897700868574837,3.974341550972881,-11.816036237809051,2.3694190161829027,1.7855757818017306,-0.20000516494059553,-0.02975143709549055,0.16119970146421414,3.324517418379358e-05,0.7670767906232119,70,255,255,255
454,9.080081619998964,17.945066195615222,4.010114099562504,-11.820036323908958,2.368266352019282,1.7886274294811375,-0.20000430499538244,-0.05763320818104489,0.15258238397034662,4.2997260654570324e-05,0.7685436922816146,70,255,255,255
455,9.100159385998268,17.99245770309985,4.045984984847009,-11.824036428429256,2.3695753742312156,1.7935442642252841,-0.20000522601489945,0.06545111059668018,0.2458417372073327,-4.6050975850586706e-05,0.7705919641903878,70,255,255,255
456,9.120137526999315,18.039861923841286,4.081949091187151,-11.828036543102609,2.370211037071831,1.798205317007114,-0.2000057336676384,0.03178314203075372,0.23305263909149598,-2.5382636947818282e-05,0.7724763743464591,70,255,255,255
457,9.140135295998334,18.087266241151738,4.118001517886683,-11.832036666422436,2.370215865522537,1.802621334976605,-0.200006165991329,0.00024142253531023172,0.2208008984745493,-2.161618452986569e-05,0.7742100316900448,70,255,255,255
458,9.160058835997916,18.134658557657364,4.154137300817647,-11.836036773205436,2.369615825281298,1.8067891465481853,-0.2000053391500054,-0.03000201206196529,0.20839057857901633,4.134206617972813e-05,0.7758049964461435,70,255,255,255
459,9.180091203998018,18.182027869277647,4.19035195724582,-11.840036874630727,2.368465581014099,1.8107328214086784,-0.20000507126452285,-0.05751221335993417,0.19718374302465502,1.3394274127859207e-05,0.7772723640217544,70,255,255,255
460,9.200085762000526,18.229422773914596,4.22667843583023,-11.84403695530869,2.369745231847517,1.8163239292205187,-0.20000403389818194,0.06398254167090434,0.27955539059201073,5.186831704542816e-05,0.7793196586697784,70,255,255,255
461,9.220083584998065,18.27682989717339,4.263110779353329,-11.848037015658441,2.3703561629395806,1.821617176154907,-0.20000301748754498,0.03054655460316269,0.2646623467194156,5.0820531848350115e-05,0.7812031697459605,70,255,255,255
462,9.240075645000616,18.324236629131505,4.299643201680204,-11.852037054262313,2.370336597905825,1.8266211163437573,-0.200001930193607,-0.000978251687794529,0.2501970094425161,5.436469689831802e-05,0.782935999936048,70,255,255,255
463,9.260073437999381,18.37163113543345,4.336270120596149,-11.856037071657052,2.3697253150972477,1.831345945797252,-0.20000086973697587,-0.030564140428868125,0.2362414726747326,5.302283155733667e-05,0.7845302037109285,70,255,255,255
464,9.280105899000773,18.419002422283715,4.372986239688934,-11.860037079474896,2.368564342513252,1.8358059546392282,-0.20000039089218563,-0.05804862919977882,0.2230004420988141,2.3942239512103614e-05,0.7859968711838187,70,255,255,255
465,9.30007505499816,18.466399215870165,4.409821142969883,-11.86403706908147,2.369839679322507,1.841745164047484,-0.1999994803286138,0.06376684046273473,0.2969604704127866,4.552817859115876e-05,0.78804427690637,70,255,255,255
466,9.32010562600044,18.5138082487461,4.446768379354731,-11.868037051368796,2.370451643796655,1.8473618192424315,-0.19999911436636691,0.030598223707409833,0.280832759747373,1.829811234482781e-05,0.7899278901711173,70,255,255,255
467,9.340178010999807,18.56121716373354,4.483821829531497,-11.872037049967574,2.3704457493721787,1.8526725088382654,-0.19999992993885857,-0.000294721223835559,0.26553447979169387,-4.077862458251591e-05,0.7916608143746847,70,255,255,255
468,9.360107232998416,18.60861388715222,4.520975145345805,-11.876037041252395,2.3698361709339526,1.857665790715395,-0.1999995642410763,-0.03047892191130508,0.24966409385648292,1.828488911437276e-05,0.7932551046419668,70,255,255,255
469,9.380086425000627,18.6559872491532,4.558222348460332,-11.880037019017484,2.3686681000488794,1.8623601557263751,-0.1999988882544106,-0.05840354425365568,0.23471825054900863,3.3799333285511324e-05,0.7947218516878662,70,255,255,255
470,9.40007514899844,18.703386157529835,4.5955900151875255,-11.884036991379999,2.36994541883179,1.8683833363596385,-0.19999861812574204,0.06386593914554206,0.30115903166316693,1.3506433427651343e-05,0.7967696286640075,70,255,255,255
471,9.420069697000145,18.750797223799793,4.6330712740938385,-11.888036956963674,2.3705533134978682,1.874062945315637,-0.19999827918381974,0.03039473330390763,0.28398044779993015,1.6947096115521587e-05,0.7986535834820574,70,255,255,255
472,9.440071840999735,18.79820786764424,4.670659507133412,-11.892036916916389,2.3705321922223197,1.8794116519786963,-0.19999799763571213,-0.0010560637774355008,0.26743533315296397,1.4077405379592234e-05,0.8003868219146633,70,255,255,255
473,9.46010570100043,18.845606365730557,4.708348417587923,-11.896036882475276,2.3699249043158592,1.8844455227255423,-0.1999982779442849,-0.030364395323023707,0.2516935373423046,-1.4015428638908256e-05,0.8019814012726607,70,255,255,255
474,9.480099386000802,18.892981588999294,4.746131804609773,-11.900036851338267,2.3687611634369405,1.8891693510924579,-0.19999844314963836,-0.05818704394592933,0.23619141834577206,-8.260267672532962e-06,0.8034484142820183,70,255,255,255
475,9.500108414998977,18.940382324335594,4.784033221664364,-11.90403682199502,2.3700367668150357,1.895070852729591,-0.1999985328376017,0.06378016890476434,0.29507508185665876,-4.484398167053927e-06,0.8054963374451237,70,255,255,255
476,9.52016049300073,18.98779536648847,4.822045904180392,-11.908036811049815,2.370652107643822,1.9006341258014132,-0.1999994527397752,0.03076704143931197,0.27816365359110806,-4.5995108676283314e-05,0.8073804267551807,70,255,255,255
477,9.54008575899934,19.03520787703268,4.860162929920134,-11.912036793501404,2.3706255272104286,1.9058512869870667,-0.1999991225794123,-0.001329021669679964,0.260858059282681,1.650801814584435e-05,0.8091137889204332,70,255,255,255
478,9.560060817999329,19.08260794803667,4.898377776404627,-11.916036761792935,2.3700035501995003,1.9107423242246444,-0.19999841457654396,-0.03109885054642092,0.244551861878882,3.5400143416658425e-05,0.8107084821124655,70,255,255,255
479,9.580121619997954,19.129984680325645,4.936684416654221,-11.920036736281384,2.3688366144486883,1.9153320124797035,-0.19999872442250327,-0.05834678754060407,0.22948441275295117,-1.5492297964908586e-05,0.8121755998491351,70,255,255,255
480,9.600090898999042,19.17738670281423,4.975103566501587,-11.924036704277036,2.370101124429089,1.9209574923682902,-0.19999839978261527,0.0632254990200165,0.2812739944293354,1.623199440012324e-05,0.8142233024305028,70,255,255,255
481,9.620070162000047,19.224800588496063,5.01362838204108,-11.928036659584826,2.3706942840917393,1.9262407769746615,-0.19999776538948452,0.02965798313252277,0.26416423031856273,3.171965653692155e-05,0.816107188805361,70,255,255,255
482,9.640128992999962,19.272213951621666,5.052252505373219,-11.932036621863453,2.3706681562800704,1.9312061666069344,-0.19999811393131695,-0.0013063905834473921,0.2482694816136488,-1.7427091620836332e-05,0.8178403642702305,70,255,255,255
483,9.660061998998572,19.3196147477826,5.090969414639232,-11.93603656931694,2.370039808046831,1.9358454633006332,-0.19999737267432705,-0.03141741166197631,0.23196483468494233,3.70628494948122e-05,0.8194348856979106,70,255,255,255
484,9.680074071999115,19.366991928356498,5.129773073732222,-11.94003650678223,2.368859028694798,1.9401829546495102,-0.1999968732644863,-0.05903896760165184,0.21687456744384281,2.4970492036674452e-05,0.8209018454113761,70,255,255,255
485,9.700079919999553,19.41439428791954,5.168681824955407,-11.94403643902267,2.370117978152011,1.945437561159265,-0.1999966120219955,0.06294747286064784,0.26273032548773445,1.30621245399698e-05,0.8229495512366599,70,255,255,255
486,9.720107655997708,19.461808560712267,5.207689275861607,-11.948036375335684,2.370713639636453,1.9503725453099674,-0.19999681565078942,0.029783074222091255,0.24674920753512275,-1.0181439696194117e-05,0.824833440595921,70,255,255,255
487,9.740073982000467,19.509222061347643,5.2467890690113155,-11.952036304803142,2.3706750317688514,1.9549896574854473,-0.19999647337285872,-0.0019303933800762785,0.2308556087739937,1.7113896535303486e-05,0.8265666188064412,70,255,255,255
488,9.760072613000375,19.556622970173294,5.2859751809401185,-11.956036227510547,2.370045441282461,1.9593055964401427,-0.19999613537020566,-0.03147952431951273,0.21579694773476676,1.6900132653291378e-05,0.8281611427601198,70,255,255,255
489,9.780211757999496,19.604000646507675,5.325242247643818,-11.960036188513568,2.3688838167190616,1.9633533351849588,-0.1999980501511054,-0.05808122816997985,0.2023869372408087,-9.573904498588748e-05,0.829628104797504,70,255,255,255
490,9.800086360999558,19.6514036134451,5.364605940231104,-11.964036163980387,2.3701483468713667,1.9681846293642917,-0.19999877334092006,0.06322650761525761,0.2415647089666455,-3.61594907337115e-05,0.8316762908134676,70,255,255,255
491,9.820074125000247,19.698818469647094,5.404060162268383,-11.968036149166908,2.3707428100996495,1.9727111018639476,-0.1999992593260114,0.029723161414149324,0.2263236249827889,-2.429925456728932e-05,0.8335606219481542,70,255,255,255
492,9.840079270998103,19.74623265445505,5.443599092772118,-11.972036145160368,2.370709240397733,1.9769465251867226,-0.19999979967304127,-0.0016784850958160291,0.21177116613874802,-2.7017351494212916e-05,0.8352942065920658,70,255,255,255
493,9.860127161999117,19.79363449870812,5.483217258535559,-11.976036166643883,2.370092212653457,1.9809082881720703,-0.20000107417578872,-0.030851387213781667,0.19808814926738072,-6.372513737201713e-05,0.8368891044644644,70,255,255,255
494,9.880081224000605,19.841012752887195,5.522909093713635,-11.980036197353517,2.3689127089538307,1.9845917589038127,-0.20000153548171395,-0.0589751849813247,0.184173536587122,-2.3065296262114732e-05,0.8383564105070712,70,255,255,255
495,9.90007104200049,19.888415908135194,5.562688007935914,-11.984036220537446,2.3701577623999164,1.9889457111139006,-0.2000011591964881,0.06225267230427711,0.21769761050439462,1.881426129399233e-05,0.840404075584894,70,255,255,255
496,9.920073526998749,19.935830633291577,5.602548499114243,-11.988036237405318,2.370736257819118,1.9930245589164541,-0.20000084339363358,0.02892477096009216,0.2039423901276738,1.57901427257634e-05,0.8422879274564911,70,255,255,255
497,9.94007121300092,19.983244363196796,5.6424852495591615,-11.99203624756863,2.3706864952610043,1.9968375222459278,-0.20000050816555529,-0.002488127905678539,0.190648166473687,1.6761403915099837e-05,0.8440210711783603,70,255,255,255
498,9.960064290000446,20.030645273444474,5.682493124026188,-11.996036249198031,2.370045512383884,2.000393723351323,-0.20000008147008927,-0.032049143856005546,0.17781005526977633,2.1334773301073806e-05,0.84561556340248,70,255,255,255
499,9.980068745997414,20.078022306016855,5.722567217636332,-12.00003624422887,2.3688516286190917,2.003704680507229,-0.1999997515419505,-0.05969418823960915,0.16554785779530357,1.6496406939014996e-05,0.8470824962486702,70,255,255,255
500,10.000075298998127,20.12542380914089,5.762718648829051,-12.004036206507251,2.3700751562018225,2.007571559635963,-0.19999811391910566,0.06117637913654361,0.19334395643667612,8.188114224161325e-05,0.8491296107384267,70,255,255,255
501,10.020076605000213,20.17283647635769,5.802942539737525,-12.0080361384766,2.3706333608400003,2.011194545423677,-0.19999659846739437,0.02791023190890085,0.1811492893857034,7.577258556484834e-05,0.8510129560690028,70,255,255,255
502,10.04013384800055,20.220247960731744,5.843234368231186,-12.012036060382064,2.3705742187025978,2.0145914246830463,-0.1999960952732433,-0.002957106870133508,0.16984396296846827,2.5159707553790156e-05,0.8527456337731328,70,255,255,255
503,10.060127967997687,20.267646456042606,5.883589572811981,-12.01603597107083,2.369924765543057,2.01776022903973,-0.19999553443825838,-0.03247265797704468,0.15844021783416729,2.804174924581071e-05,0.8543396972609324,70,255,255,255
504,10.0801200959977,20.31502087885117,5.924003757895559,-12.020035868839756,2.368721140428222,2.020709254178894,-0.1999948884462715,-0.06018125574176958,0.14745125695820294,3.229959934333837e-05,0.855806235669708,70,255,255,255
505,10.100202076999267,20.362420112864136,5.964518375736872,-12.024035773399762,2.369961700648353,2.0257308920656536,-0.1999952280003168,0.06202801100657229,0.25108189433797223,-1.6977702264581174e-05,0.8578543049936458,70,255,255,255
506,10.120071244000428,20.409830411969224,6.005126795283011,-12.02803564262953,2.370514955254425,2.0304209773069246,-0.19999346148833752,0.027662730303597893,0.2345042620635529,8.83255989643783e-05,0.8597385287716686,70,255,255,255
507,10.140101472999959,20.45723935251514,6.04582315382324,-12.032035488531383,2.3704470272956506,2.0348179270114484,-0.1999922950926881,-0.0033963979387259258,0.21984748522617847,5.831978247092251e-05,0.8614720146474495,70,255,255,255
