idx,t,px,py,pz,vx,vy,vz,ax,ay,az,yaw,mode,ledr,ledg,ledb
0,2.6399720809422433e-07,5.279944161884487e-07,2.6399720809422436e-08,-10.000000052799441,2.0,0.10000002639972082,-0.1999999999999993,0.0,0.0,0.0,2.3038102486584195e-08,70,255,64,64
1,0.10024393299681833,0.20048786599363666,0.010024393299681834,-10.020048786599364,2.0,0.11002439329968183,-0.19999999999999937,0.0,0.0,0.0,0.008747933429715332,70,255,64,64
2,0.20018037199770333,0.40036074399540666,0.020018037199770335,-10.040036074399541,2.0,0.12001803719977033,-0.19999999999999946,0.0,0.0,0.0,0.01746903294613491,70,255,64,64
3,0.3001739159990393,0.6003478319980786,0.030017391599903933,-10.060034783199807,2.0,0.13001739159990394,-0.19999999999999957,0.0,0.0,0.0,0.0261951158139406,70,255,64,64
4,0.40023706599822617,0.8004741319964523,0.04002370659982262,-10.080047413199646,2.0,0.14002370659982263,-0.19999999999999965,0.0,0.0,0.0,0.034927272950954456,70,255,64,64
5,0.5001246059982805,1.000249211996561,0.05001246059982805,-10.100024921199656,2.0,0.15001246059982806,-0.19999999999999973,0.0,0.0,0.0,0.043644105224546884,70,255,64,64
6,0.6001319030001468,1.2002638060002937,0.06001319030001469,-10.120026380600029,2.0,0.1600131903000147,-0.19999999999999982,0.0,0.0,0.0,0.05237138826805899,70,255,64,64
7,0.7001712159981253,1.4003424319962505,0.07001712159981253,-10.140034243199624,2.0,0.17001712159981253,-0.1999999999999999,0.0,0.0,0.0,0.06110146523429841,70,255,64,64
8,0.8001590489984665,1.600318097996933,0.08001590489984665,-10.160031809799692,2.0,0.18001590489984665,-0.2,0.0,0.0,0.0,0.06982704972324938,70,255,64,64
9,0.9001755969984515,1.800351193996903,0.09001755969984515,-10.18003511939969,2.0,0.19001755969984516,-0.2000000000000001,0.0,0.0,0.0,0.07855514006864282,70,255,64,64
10,1.0001847769999586,2.000369553999917,0.10005543309998757,-10.200036955399991,2.0,0.20003695539999172,-0.20000000000000018,0.0,0.0,0.0,0.08728258743487265,70,255,64,64
11,1.1002641659979417,2.2005283319958835,0.13007924979938254,-10.220052833199588,2.0,0.22005283319958835,-0.20000000000000018,0.0,0.0,0.0,0.09601616169186762,70,255,64,64
12,1.200173156998062,2.400346313996124,0.1600519470994186,-10.240034631399611,2.0,0.24003463139961242,-0.20000000000000018,0.0,0.0,0.0,0.10473486591835503,70,255,64,64
13,1.3001331799969194,2.6002663599938387,0.1900399539990758,-10.260026635999383,2.0,0.2600266359993839,-0.20000000000000018,0.0,0.0,0.0,0.11345802352685161,70,255,64,64
14,1.4001377999993565,2.800275599998713,0.22004133999980696,-10.280027559999871,2.0,0.28002755999987133,-0.20000000000000018,0.0,0.0,0.0,0.12218507295809315,70,255,64,64
15,1.5001717839986668,3.0003435679973336,0.2500515351996001,-10.300034356799733,2.0,0.3000343567997334,-0.20000000000000018,0.0,0.0,0.0,0.1309146848814696,70,255,64,64
16,1.6001519689998531,3.2003039379997062,0.28004559069995594,-10.320030393799971,2.0,0.32003039379997067,-0.20000000000000018,0.0,0.0,0.0,0.13963960195658837,70,255,64,64
17,1.7002437919982185,3.400487583996437,0.3100731375994656,-10.340048758399643,2.0,0.3400487583996437,-0.20000000000000018,0.0,0.0,0.0,0.14837426128481265,70,255,64,64
18,1.8001485599997977,3.6002971199995955,0.3400445679999393,-10.36002971199996,2.0,0.3600297119999596,-0.20000000000000018,0.0,0.0,0.0,0.15709259698515582,70,255,64,64
19,1.9001741549982398,3.8003483099964797,0.370052246499472,-10.380034830999648,2.0,0.38003483099964797,-0.20000000000000018,0.0,0.0,0.0,0.16582147683010176,70,255,64,64
20,2.0001731279990054,4.000346255998011,0.4000865639995027,-10.400034625599801,2.0,0.4000346255998011,-0.20000000000000018,0.0,0.0,0.0,0.17454803346748313,70,255,64,64
21,2.1001389470002323,4.200277894000465,0.45006947350011617,-10.420027789400047,2.0,0.4200277894000465,-0.20000000000000018,0.0,0.0,0.0,0.18327169687260372,70,255,64,64
22,2.2001911509978527,4.400382301995705,0.5000955754989264,-10.440038230199571,2.0,0.44003823019957056,-0.20000000000000018,0.0,0.0,0.0,0.19200289879078125,70,255,64,64
23,2.3001325419973,4.6002650839946,0.55006627099865,-10.46002650839946,2.0,0.46002650839946,-0.20000000000000018,0.0,0.0,0.0,0.20072443045059818,70,255,64,64
24,2.400175954997394,4.800351909994788,0.600087977498697,-10.480035190999478,2.0,0.48003519099947883,-0.20000000000000018,0.0,0.0,0.0,0.20945486520951886,70,255,64,64
25,2.5002217250003014,5.000443450000603,0.6501108625001507,-10.50004434500006,2.0,0.5000443450000603,-0.20000000000000018,0.0,0.0,0.0,0.2181855056557374,70,255,64,64
26,2.6001966099975107,5.200393219995021,0.7000983049987554,-10.520039321999501,2.0,0.5200393219995022,-0.20000000000000018,0.0,0.0,0.0,0.22690996021825735,70,255,64,64
27,2.7001663199989707,5.400332639997941,0.7500831599994854,-10.540033263999794,2.0,0.5400332639997942,-0.20000000000000018,0.0,0.0,0.0,0.23563396317720423,70,255,64,64
28,2.8001777959980245,5.600355591996049,0.8000888979990123,-10.560035559199605,2.0,0.560035559199605,-0.20000000000000018,0.0,0.0,0.0,0.24436161090701808,70,255,64,64
29,2.90016611199826,5.80033222399652,0.85008305599913,-10.580033222399651,2.0,0.580033222399652,-0.20000000000000018,0.0,0.0,0.0,0.25308723754566126,70,255,64,64
30,3.0002219899979536,6.000443979995907,0.9001553929985676,-10.600044397999591,2.0,0.6000443979995909,-0.20000000000000018,0.0,0.0,0.0,0.26181876008100335,70,255,64,64
31,3.100200690998463,6.200401381996926,0.9701404836989241,-10.620040138199693,2.0,0.6200401381996927,-0.20000000000000018,0.0,0.0,0.0,0.2705435476526325,70,255,64,64
32,3.2001600809999218,6.4003201619998435,1.0401120566999453,-10.640032016199985,2.0,0.6400320161999844,-0.20000000000000018,0.0,0.0,0.0,0.2792666500216853,70,255,64,64
33,3.300242751996848,6.600485503993696,1.1101699263977935,-10.66004855039937,2.0,0.6600485503993696,-0.20000000000000018,0.0,0.0,0.0,0.2880005106871183,70,255,64,64
34,3.400208670998836,6.800417341997672,1.1801460696991852,-10.680041734199767,2.0,0.6800417341997673,-0.20000000000000018,0.0,0.0,0.0,0.29672418281895163,70,255,64,64
35,3.5001879519986687,7.0003759039973374,1.2501315663990682,-10.700037590399734,2.0,0.7000375903997338,-0.20000000000000018,0.0,0.0,0.0,0.30544902100507004,70,255,64,64
36,3.600176451000152,7.200352902000304,1.3201235157001066,-10.72003529020003,2.0,0.7200352902000304,-0.20000000000000018,0.0,0.0,0.0,0.31417466361358476,70,255,64,64
37,3.700221924998914,7.400443849997828,1.3901553474992399,-10.740044384999782,2.0,0.7400443849997829,-0.20000000000000018,0.0,0.0,0.0,0.3229052782285686,70,255,64,64
38,3.800142218999099,7.600284437998198,1.4600995532993695,-10.76002844379982,2.0,0.7600284437998198,-0.20000000000000018,0.0,0.0,0.0,0.33162496882788844,70,255,64,64
39,3.9001617559988517,7.8003235119977035,1.5301132291991963,-10.780032351199772,2.0,0.7800323511997704,-0.20000000000000018,0.0,0.0,0.0,0.34035332001271834,70,255,64,64
40,4.000169508999534,8.000339017999067,1.6001525580995803,-10.800033901799907,2.0,0.8000339017999067,-0.20000000000000018,0.0,0.0,0.0,0.349080642849634,70,255,64,64
41,4.100192799996876,8.200385599993751,1.6901735199971881,-10.820038559999375,2.0,0.8200385599993751,-0.2000000000000001,0.0,0.0,0.0,0.35780932163255413,70,255,64,64
42,4.200174249999691,8.400348499999382,1.7801568249997217,-10.840034849999938,2.0,0.8400348499999382,-0.2,0.0,0.0,0.0,0.36653434909989024,70,255,64,64
43,4.300193309998576,8.600386619997153,1.8701739789987188,-10.860038661999715,2.0,0.8600386619997153,-0.1999999999999999,0.0,0.0,0.0,0.37526265865854175,70,255,64,64
44,4.4002020609987085,8.800404121997417,1.9601818548988377,-10.880040412199742,2.0,0.8800404121997417,-0.19999999999999982,0.0,0.0,0.0,0.38399006858733914,70,255,64,64
45,4.500177027999598,9.000354055999196,2.050159325199638,-10.90003540559992,2.0,0.9000354055999197,-0.19999999999999973,0.0,0.0,0.0,0.39271453030603015,70,255,64,64
46,4.600197323998145,9.20039464799629,2.1401775915983308,-10.920039464799629,2.0,0.9200394647996291,-0.19999999999999965,0.0,0.0,0.0,0.401442947726,70,255,64,64
47,4.700183986999036,9.400367973998073,2.2301655882991325,-10.940036797399808,2.0,0.9400367973998073,-0.19999999999999957,0.0,0.0,0.0,0.41016843011323767,70,255,64,64
48,4.800198539000121,9.600397078000242,2.320178685100109,-10.960039707800025,2.0,0.9600397078000242,-0.19999999999999946,0.0,0.0,0.0,0.4188963462748677,70,255,64,64
49,4.900259301997721,9.800518603995442,2.410233371797949,-10.980051860399545,2.0,0.9800518603995443,-0.19999999999999937,0.0,0.0,0.0,0.4276282951066969,70,255,64,64
50,5.000170090999745,10.00034018199949,2.50018710009972,-11.00003401819995,2.0,1.000034018199949,-0.1999999999999993,0.0,0.0,0.0,0.4363471562384502,70,255,64,64
51,5.100167761997,10.200335523994,2.6101845381966995,-11.0200335523994,2.0,1.0200335523994,-0.19999999999999937,0.0,0.0,0.0,0.44507359925459083,70,255,64,64
52,5.200165051999647,10.400330103999295,2.720181557199612,-11.04003301039993,2.0,1.0400330103999296,-0.19999999999999946,0.0,0.0,0.0,0.4538000090226799,70,255,64,64
53,5.300163279000117,10.600326558000233,2.8301796069001286,-11.060032655800024,2.0,1.0600326558000235,-0.19999999999999957,0.0,0.0,0.0,0.4625265005592543,70,255,64,64
54,5.400208230999851,10.800416461999703,2.9402290540998366,-11.08004164619997,2.0,1.0800416461999705,-0.19999999999999965,0.0,0.0,0.0,0.4712570696212296,70,255,64,64
55,5.500174816999788,11.000349633999576,3.050192298699767,-11.100034963399958,2.0,1.1000349633999578,-0.19999999999999973,0.0,0.0,0.0,0.47998079995961446,70,255,64,64
56,5.600209827996878,11.200419655993755,3.1602308107965653,-11.120041965599375,2.0,1.1200419655993756,-0.19999999999999982,0.0,0.0,0.0,0.4887105015054541,70,255,64,64
57,5.700203854998108,11.400407709996216,3.2702242404979187,-11.14004077099962,2.0,1.1400407709996216,-0.1999999999999999,0.0,0.0,0.0,0.497436626522952,70,255,64,64
58,5.800224181999511,11.600448363999021,3.3802466001994618,-11.160044836399901,2.0,1.1600448363999023,-0.2,0.0,0.0,0.0,0.5061650466484313,70,255,64,64
59,5.900137108998024,11.800274217996048,3.4901508198978264,-11.180027421799604,2.0,1.180027421799605,-0.2000000000000001,0.0,0.0,0.0,0.5148840943555753,70,255,64,64
60,6.000143918998219,12.000287837996439,3.6001870946976853,-11.200028783799644,2.0,1.200028783799644,-0.20000000000000018,0.0,0.0,0.0,0.5236113349001743,70,255,64,64
61,6.100173801998608,12.200347603997216,3.73022594259819,-11.22003476039972,2.0,1.2200347603997217,-0.20000000000000018,0.0,0.0,0.0,0.5323405889438817,70,255,64,64
62,6.200154875998123,12.400309751996247,3.8602013387975607,-11.240030975199625,2.0,1.2400309751996248,-0.20000000000000018,0.0,0.0,0.0,0.5410655835987399,70,255,64,64
63,6.300139963997935,12.60027992799587,3.9901819531973164,-11.260027992799587,2.0,1.2600279927995872,-0.20000000000000018,0.0,0.0,0.0,0.5497909285412049,70,255,64,64
64,6.400182361998304,12.800364723996609,4.1202370705977955,-11.28003647239966,2.0,1.2800364723996611,-0.20000000000000018,0.0,0.0,0.0,0.55852127472469,70,255,64,64
65,6.500143043998833,13.000286087997665,4.250185957198482,-11.300028608799767,2.0,1.3000286087997668,-0.20000000000000018,0.0,0.0,0.0,0.5672444898419313,70,255,64,64
66,6.600206956998591,13.200413913997181,4.380269044098168,-11.320041391399718,2.0,1.3200413913997182,-0.20000000000000018,0.0,0.0,0.0,0.575976713563306,70,255,64,64
67,6.700171306998527,13.400342613997054,4.510222699098086,-11.340034261399705,2.0,1.3400342613997056,-0.20000000000000018,0.0,0.0,0.0,0.5847002487738804,70,255,64,64
68,6.8001675159976,13.6003350319952,4.64021777079688,-11.36003350319952,2.0,1.3600335031995203,-0.20000000000000018,0.0,0.0,0.0,0.5934265642066114,70,255,64,64
69,6.900196951999533,13.800393903999066,4.770256037599393,-11.380039390399906,2.0,1.3800393903999066,-0.20000000000000018,0.0,0.0,0.0,0.6021557792423449,70,255,64,64
70,7.000168618997122,14.000337237994245,4.900252928495684,-11.400033723799424,2.0,1.4000337237994247,-0.20000000000000018,0.0,0.0,0.0,0.6108799529814213,70,255,64,64
71,7.100175292998756,14.200350585997512,5.050262939498134,-11.420035058599751,2.0,1.4200350585997512,-0.20000000000000018,0.0,0.0,0.0,0.619607181657907,70,255,64,64
72,7.200185204997979,14.400370409995958,5.200277807496969,-11.440037040999597,2.0,1.4400370409995957,-0.20000000000000018,0.0,0.0,0.0,0.628334692902988,70,255,64,64
73,7.300230585999088,14.600461171998177,5.350345878998633,-11.460046117199818,2.0,1.4600461171998176,-0.20000000000000018,0.0,0.0,0.0,0.6370652994023958,70,255,64,64
74,7.400175449998642,14.800350899997284,5.500263174997963,-11.480035089999728,2.0,1.4800350899997283,-0.20000000000000018,0.0,0.0,0.0,0.6457871341386465,70,255,64,64
75,7.500149612998939,15.000299225997878,5.650224419498409,-11.500029922599788,2.0,1.5000299225997877,-0.20000000000000018,0.0,0.0,0.0,0.6545115256950499,70,255,64,64
76,7.600154636998923,15.200309273997846,5.8002319554983846,-11.520030927399784,2.0,1.5200309273997843,-0.20000000000000018,0.0,0.0,0.0,0.6632386103817283,70,255,64,64
77,7.700226902998111,15.400453805996221,5.9503403544971665,-11.540045380599622,2.0,1.540045380599622,-0.20000000000000018,0.0,0.0,0.0,0.6719715630398153,70,255,64,64
78,7.800160180999228,15.600320361998456,6.100240271498842,-11.560032036199845,2.0,1.5600320361998454,-0.20000000000000018,0.0,0.0,0.0,0.6806923867069669,70,255,64,64
79,7.900144644998363,15.800289289996726,6.250216967497545,-11.580028928999672,2.0,1.5800289289996723,-0.20000000000000018,0.0,0.0,0.0,0.6894176771951,70,255,64,64
80,8.000129555999592,16.000259111999185,6.400220245199307,-11.600025911199918,2.0,1.6000259111999182,-0.20000000000000018,0.0,0.0,0.0,0.6981430066915248,70,255,64,64
81,8.100236316997325,16.20047263399465,6.570401738895453,-11.620047263399465,2.0,1.6200472633994647,-0.20000000000000018,0.0,0.0,0.0,0.7068789696061122,70,255,64,64
82,8.200131708999834,16.400263417999668,6.740223905299717,-11.640026341799967,2.0,1.6400263417999665,-0.20000000000000018,0.0,0.0,0.0,0.7155964870961832,70,255,64,64
83,8.300167018998764,16.600334037997527,6.910283932297898,-11.660033403799753,2.0,1.6600334037997524,-0.20000000000000018,0.0,0.0,0.0,0.7243262147348558,70,255,64,64
84,8.400194656998792,16.800389313997584,7.080330916897947,-11.680038931399759,2.0,1.6800389313997581,-0.20000000000000018,0.0,0.0,0.0,0.7330552728653232,70,255,64,64
85,8.500162700998771,17.000325401997543,7.2502765916979115,-11.700032540199754,2.0,1.700032540199754,-0.20000000000000018,0.0,0.0,0.0,0.7417791304382143,70,255,64,64
86,8.600151646998711,17.200303293997422,7.420257799897809,-11.720030329399743,2.0,1.7200303293997419,-0.20000000000000018,0.0,0.0,0.0,0.7505048120547031,70,255,64,64
87,8.700234328996885,17.40046865799377,7.590398359294705,-11.740046865799377,2.0,1.7400468657993766,-0.20000000000000018,0.0,0.0,0.0,0.7592386736801761,70,255,64,64
88,8.80021779299932,17.60043558599864,7.760370248098843,-11.760043558599865,2.0,1.7600435585998637,-0.20000000000000018,0.0,0.0,0.0,0.7679638769021346,70,255,64,64
89,8.900190811997163,17.800381623994326,7.930324380395177,-11.780038162399434,2.0,1.7800381623994324,-0.20000000000000018,0.0,0.0,0.0,0.7766881686254906,70,255,64,64
90,9.000170717998117,18.000341435996233,8.100324364196421,-11.800034143599625,2.0,1.8000341435996232,-0.20000000000000018,0.0,0.0,0.0,0.7854130613532461,70,255,64,64
91,9.100255326997285,18.20051065399457,8.290485121294841,-11.820051065399458,2.0,1.8200510653994568,-0.2000000000000001,0.0,0.0,0.0,0.7941470911412792,70,255,64,64
92,9.200138554999285,18.40027710999857,8.48026325449864,-11.840027710999857,2.0,1.8400277109998568,-0.2,0.0,0.0,0.0,0.8028635471220547,70,255,64,64
93,9.30012995299694,18.60025990599388,8.670246910694186,-11.860025990599388,2.0,1.860025990599388,-0.1999999999999999,0.0,0.0,0.0,0.8115894427157104,70,255,64,64
94,9.400164042999677,18.800328085999354,8.860311681699386,-11.880032808599935,2.0,1.8800328085999354,-0.19999999999999982,0.0,0.0,0.0,0.8203190638896309,70,255,64,64
95,9.500184024000191,19.000368048000382,9.050349645600363,-11.900036804800038,2.0,1.9000368048000382,-0.19999999999999973,0.0,0.0,0.0,0.8290474538208367,70,255,64,64
96,9.60015860799831,19.20031721599662,9.240301355196788,-11.920031721599662,2.0,1.9200317215996618,-0.19999999999999965,0.0,0.0,0.0,0.8377718821162307,70,255,64,64
97,9.700154480997298,19.400308961994597,9.430293513894867,-11.94003089619946,2.0,1.9400308961994597,-0.19999999999999957,0.0,0.0,0.0,0.846498168227423,70,255,64,64
98,9.800218829997903,19.600437659995805,9.620415776996015,-11.96004376599958,2.0,1.9600437659995804,-0.19999999999999946,0.0,0.0,0.0,0.8552304299970491,70,255,64,64
99,9.900163226997392,19.800326453994785,9.810310131295045,-11.98003264539948,2.0,1.9800326453994785,-0.19999999999999937,0.0,0.0,0.0,0.8639522239798564,70,255,64,64
100,10.000077937998867,20.000155875997734,10.00016366979762,-12.000015587599773,2.0,2.0000155875997736,-0.1999999999999993,0.0,0.0,0.0,0.872671427370628,70,255,64,64
101,10.100181398000132,20.200362796000263,10.210380935800277,-12.020036279600026,2.0,2.0200362796000264,-0.19999999999999937,0.0,0.0,0.0,0.8814071022189306,70,255,64,64
102,10.200204757999018,20.400409515998035,10.420429991797937,-12.040040951599803,2.0,2.0400409515998037,-0.19999999999999946,0.0,0.0,0.0,0.8901357870233714,70,255,64,64
103,10.300130231997173,20.600260463994346,10.630273487194064,-12.060026046399434,2.0,2.0600260463994347,-0.19999999999999957,0.0,0.0,0.0,0.8988559296627903,70,255,64,64
104,10.400181637996866,20.800363275993732,10.840381439793418,-12.080036327599373,2.0,2.080036327599373,-0.19999999999999965,0.0,0.0,0.0,0.9075870619425116,70,255,64,64
105,10.500166204998095,21.00033240999619,11.050349030496,-12.100033240999618,2.0,2.100033240999619,-0.19999999999999973,0.0,0.0,0.0,0.9163123614192732,70,255,64,64
106,10.600224788999185,21.20044957799837,11.260472056898289,-12.120044957799836,2.0,2.1200449577998373,-0.19999999999999982,0.0,0.0,0.0,0.9250441200977849,70,255,64,64
107,10.700188754999544,21.40037750999909,11.470396385499043,-12.140037750999909,2.0,2.140037750999909,-0.1999999999999999,0.0,0.0,0.0,0.9337676217980746,70,255,64,64
108,10.800176847998955,21.60035369599791,11.680371380797805,-12.16003536959979,2.0,2.1600353695997914,-0.2,0.0,0.0,0.0,0.9424932289762246,70,255,64,64
109,10.900178529998811,21.800357059997623,11.890374912997503,-12.180035705999762,2.0,2.1800357059997624,-0.2000000000000001,0.0,0.0,0.0,0.9512200220183739,70,255,64,64
110,11.000175646997377,22.000351293994754,12.100403988093968,-12.200035129399474,2.0,2.2000351293994758,-0.20000000000000018,0.0,0.0,0.0,0.9599464166890086,70,255,64,64
111,11.100204710997787,22.200409421995573,12.330470835294909,-12.220040942199557,2.0,2.2200409421995575,-0.20000000000000018,0.0,0.0,0.0,0.9686755992614849,70,255,64,64
112,11.20016799899895,22.4003359979979,12.560386397697584,-12.240033599799789,2.0,2.2400335997997898,-0.20000000000000018,0.0,0.0,0.0,0.9773990417951832,70,255,64,64
113,11.300195793999592,22.600391587999184,12.79045032619906,-12.260039158799918,2.0,2.2600391587999185,-0.20000000000000018,0.0,0.0,0.0,0.9861281136265388,70,255,64,64
114,11.400213058997906,22.800426117995812,13.020490035695184,-12.280042611799582,2.0,2.280042611799581,-0.20000000000000018,0.0,0.0,0.0,0.9948562665418401,70,255,64,64
115,11.500236459000007,23.000472918000014,13.250543855700016,-12.300047291800002,2.0,2.3000472918000012,-0.20000000000000018,0.0,0.0,0.0,1.00358495483722,70,255,64,64
116,11.600182001999201,23.200364003998402,13.480418604598162,-12.32003640039984,2.0,2.32003640039984,-0.20000000000000018,0.0,0.0,0.0,1.0123068488273674,70,255,64,64
117,11.700170817999606,23.40034163599921,13.710392881399093,-12.34003416359992,2.0,2.340034163599921,-0.20000000000000018,0.0,0.0,0.0,1.0210325190992566,70,255,64,64
118,11.80020863000027,23.60041726000054,13.94047984900062,-12.360041726000054,2.0,2.3600417260000537,-0.20000000000000018,0.0,0.0,0.0,1.02976246507877,70,255,64,64
119,11.900179497999488,23.800358995998977,14.170412845398824,-12.380035899599898,2.0,2.380035899599897,-0.20000000000000018,0.0,0.0,0.0,1.038486569092085,70,255,64,64
120,12.000216229000216,24.000432458000432,14.40054057250054,-12.400043245800044,2.0,2.4000432458000427,-0.20000000000000018,0.0,0.0,0.0,1.047216420736558,70,255,64,64
121,12.100251438998384,24.20050287799677,14.650628597495961,-12.420050287799677,2.0,2.4200502877996763,-0.20000000000000018,0.0,0.0,0.0,1.055946139648518,70,255,64,64
122,12.20022536399847,24.40045072799694,14.900563409996176,-12.440045072799695,2.0,2.440045072799694,-0.20000000000000018,0.0,0.0,0.0,1.0646705104354848,70,255,64,64
123,12.300225940998644,24.600451881997287,15.15056485249661,-12.460045188199729,2.0,2.4600451881997287,-0.20000000000000018,0.0,0.0,0.0,1.0733972070482205,70,255,64,64
124,12.400219560997357,24.800439121994714,15.400548902493393,-12.480043912199472,2.0,2.4800439121994713,-0.20000000000000018,0.0,0.0,0.0,1.0821232965480485,70,255,64,64
125,12.500147536997247,25.000295073994494,15.650368842493116,-12.50002950739945,2.0,2.500029507399449,-0.20000000000000018,0.0,0.0,0.0,1.0908436575283083,70,255,64,64
126,12.600208310999733,25.200416621999466,15.900520777499331,-12.520041662199947,2.0,2.520041662199947,-0.20000000000000018,0.0,0.0,0.0,1.099575607320495,70,255,64,64
127,12.700138182997762,25.400276365995524,16.150345457494403,-12.540027636599552,2.0,2.5400276365995524,-0.20000000000000018,0.0,0.0,0.0,1.1082961337578054,70,255,64,64
128,12.800204395996843,25.600408791993686,16.400510989992107,-12.560040879199368,2.0,2.560040879199369,-0.20000000000000018,0.0,0.0,0.0,1.117028558191985,70,255,64,64
129,12.900188350999088,25.800376701998175,16.650470877497717,-12.580037670199816,2.0,2.580037670199818,-0.20000000000000018,0.0,0.0,0.0,1.12575380426176,70,255,64,64
130,13.000207776996831,26.000415553993662,16.900560997891443,-12.600041555399367,2.0,2.6000415553993665,-0.20000000000000018,0.0,0.0,0.0,1.1344821457598373,70,255,64,64
131,13.100135004999174,26.20027000999835,17.17036451349777,-12.620027000999835,2.0,2.620027000999835,-0.20000000000000018,0.0,0.0,0.0,1.143202441464997,70,255,64,64
132,13.200167776998569,26.400335553997138,17.440452997896134,-12.640033555399715,2.0,2.6400335553997145,-0.20000000000000018,0.0,0.0,0.0,1.1519319476214283,70,255,64,64
133,13.300204582999868,26.600409165999736,17.710552374099642,-12.660040916599973,2.0,2.660040916599974,-0.20000000000000018,0.0,0.0,0.0,1.1606618058109357,70,255,64,64
134,13.400240281000151,26.800480562000303,17.980648758700408,-12.68004805620003,2.0,2.680048056200031,-0.20000000000000018,0.0,0.0,0.0,1.169391567309114,70,255,64,64
135,13.500134120997245,27.00026824199449,18.25036212669256,-12.70002682419945,2.0,2.70002682419945,-0.20000000000000018,0.0,0.0,0.0,1.1781089493611623,70,255,64,64
136,13.600201244997152,27.200402489994303,18.520543361492308,-12.72004024899943,2.0,2.720040248999431,-0.20000000000000018,0.0,0.0,0.0,1.1868414532951614,70,255,64,64
137,13.700162827997701,27.400325655995402,18.790439635593795,-12.74003256559954,2.0,2.740032565599541,-0.20000000000000018,0.0,0.0,0.0,1.1955647470394872,70,255,64,64
138,13.800148612997873,27.600297225995746,19.06040125509426,-12.760029722599574,2.0,2.760029722599575,-0.20000000000000018,0.0,0.0,0.0,1.204290152806708,70,255,64,64
139,13.900231315998099,27.800462631996197,19.330624553194866,-12.78004626319962,2.0,2.7800462631996203,-0.20000000000000018,0.0,0.0,0.0,1.213024016264956,70,255,64,64
140,14.000150423999003,28.000300847998005,19.600436229597108,-12.8000300847998,2.0,2.800015042399901,-0.20000000000000018,0.0,0.0,0.0,1.2217436033663138,70,255,64,64
141,14.100176931999158,28.200353863998316,19.89051310279756,-12.820035386399832,2.0,2.8100176931999163,-0.2000000000000001,0.0,0.0,0.0,1.2304725628856896,70,255,64,64
142,14.20018539299781,28.40037078599562,20.18053763969365,-12.840037078599563,2.0,2.8200185392997814,-0.2,0.0,0.0,0.0,1.2391999475070836,70,255,64,64
143,14.300128277998738,28.600256555997476,20.47037200619634,-12.860025655599747,2.0,2.830012827799874,-0.1999999999999999,0.0,0.0,0.0,1.247921609543125,70,255,64,64
144,14.400147727999865,28.80029545599973,20.76042841119961,-12.880029545599973,2.0,2.8400147727999863,-0.19999999999999982,0.0,0.0,0.0,1.2566499531358926,70,255,64,64
145,14.500195846998395,29.00039169399679,21.050567956295346,-12.90003916939968,2.0,2.8500195846998393,-0.19999999999999973,0.0,0.0,0.0,1.2653807985706496,70,255,64,64
146,14.600133900999936,29.20026780199987,21.340388312899815,-12.920026780199988,2.0,2.860013390099993,-0.19999999999999965,0.0,0.0,0.0,1.2741020390224636,70,255,64,64
147,14.700162563000049,29.400325126000098,21.63047143270014,-12.94003251260001,2.0,2.870016256300004,-0.19999999999999957,0.0,0.0,0.0,1.282831186513796,70,255,64,64
148,14.800125660996855,29.60025132199371,21.92036441689088,-12.960025132199371,2.0,2.8800125660996847,-0.19999999999999946,0.0,0.0,0.0,1.291554612466486,70,255,64,64
149,14.900151919999189,29.800303839998378,22.210440567997647,-12.980030383999837,2.0,2.8900151919999177,-0.19999999999999937,0.0,0.0,0.0,1.300283550256703,70,255,64,64
